"Time (s)","Acceleration x (m/s^2)","Acceleration y (m/s^2)","Acceleration z (m/s^2)","Absolute acceleration (m/s^2)"
1.637458336E-3,-6.735992432E-1,6.453380127E0,7.849975891E0,1.018439848E1
1.161545841E-2,-6.333329773E-1,6.424789581E0,7.684569855E0,1.003651561E1
2.159345837E-2,-6.252497864E-1,6.356531525E0,7.498955841E0,9.850419739E0
3.157145833E-2,-5.860313416E-1,6.262077942E0,7.299420776E0,9.635278748E0
4.154945840E-2,-4.885839844E-1,6.224655762E0,7.152426453E0,9.494327666E0
5.152745836E-2,-4.114942932E-1,6.196364594E0,7.138505402E0,9.461634166E0
6.150545843E-2,-3.770658875E-1,6.168672180E0,7.236551514E0,9.516426481E0
7.148345839E-2,-3.522175598E-1,6.174210663E0,7.347470856E0,9.603658808E0
8.146145835E-2,-3.505709839E-1,6.191125488E0,7.412735138E0,9.664449133E0
9.143945843E-2,-3.472778320E-1,6.198909302E0,7.454498291E0,9.701372233E0
1.014174584E-1,-3.146456909E-1,6.218817902E0,7.405400391E0,9.675363195E0
1.113954583E-1,-2.862048340E-1,6.244414673E0,7.434290314E0,9.713047940E0
1.213724584E-1,-2.710862732E-1,6.249653778E0,7.462431793E0,9.737532972E0
1.313504584E-1,-3.038681030E-1,6.241869965E0,7.408543854E0,9.692254563E0
1.413284583E-1,-3.745211792E-1,6.214177551E0,7.464228058E0,9.719617752E0
1.513064584E-1,-4.234693909E-1,6.216722260E0,7.483388214E0,9.737970073E0
1.612844584E-1,-4.357438660E-1,6.198310547E0,7.450606384E0,9.701570071E0
1.712624584E-1,-4.351451111E-1,6.209686890E0,7.491770782E0,9.740441057E0
1.812404584E-1,-3.775149536E-1,6.255940704E0,7.522456970E0,9.791152665E0
1.912184583E-1,-3.336561584E-1,6.265520782E0,7.549101563E0,9.816160732E0
2.011964584E-1,-3.230282593E-1,6.275400238E0,7.565118256E0,9.834429807E0
2.111744584E-1,-3.640429688E-1,6.299200745E0,7.640711060E0,9.909234219E0
2.211524583E-1,-4.266128540E-1,6.318660278E0,7.730973358E0,9.993768824E0
2.311304584E-1,-4.640350342E-1,6.332731018E0,7.720944214E0,9.996588929E0
2.411084584E-1,-4.830455017E-1,6.353238373E0,7.636669464E0,9.945636796E0
2.510864583E-1,-4.840933228E-1,6.361471252E0,7.485334167E0,9.835288020E0
2.610644584E-1,-4.731660461E-1,6.356980591E0,7.380851440E0,9.752541019E0
2.710424584E-1,-4.561015320E-1,6.357579346E0,7.337591400E0,9.719418259E0
2.810204583E-1,-4.646337891E-1,6.354136505E0,7.323221283E0,9.706724743E0
2.909984584E-1,-4.754113770E-1,6.369105377E0,7.347919922E0,9.735679045E0
3.009754583E-1,-4.828958130E-1,6.385122070E0,7.351662140E0,9.749354257E0
3.109534584E-1,-5.081932068E-1,6.433022461E0,7.320077820E0,9.758359371E0
3.209314584E-1,-5.414241028E-1,6.459068298E0,7.299720154E0,9.762101089E0
3.309094583E-1,-6.054908752E-1,6.434818726E0,7.317084045E0,9.762849490E0
3.408874584E-1,-6.801855469E-1,6.430328064E0,7.342680817E0,9.784003933E0
3.508654584E-1,-6.677613831E-1,6.429130554E0,7.309150543E0,9.757218180E0
3.608434583E-1,-6.616241455E-1,6.455176392E0,7.281757507E0,9.753514298E0
3.708214584E-1,-6.789880371E-1,6.500981140E0,7.320227509E0,9.813740944E0
3.807994584E-1,-6.897656250E-1,6.559659119E0,7.487429810E0,9.978301936E0
3.907774583E-1,-7.360194397E-1,6.557114410E0,7.511829071E0,9.998252347E0
4.007554584E-1,-8.012837219E-1,6.531218262E0,7.484436035E0,9.965723774E0
4.107340417E-1,-8.291258240E-1,6.530619507E0,7.583529968E0,1.004222921E1
4.207120417E-1,-7.565267944E-1,6.563401337E0,7.723488922E0,1.016380101E1
4.306900417E-1,-7.602690125E-1,6.573729858E0,7.827223206E0,1.024974909E1
4.406680417E-1,-7.932005310E-1,6.564000092E0,7.932753754E0,1.032685075E1
4.506460417E-1,-7.726931763E-1,6.577172699E0,8.104297028E0,1.046593932E1
4.606230417E-1,-7.593708801E-1,6.641987915E0,8.159681854E0,1.054860444E1
4.706010417E-1,-6.884184265E-1,6.733597412E0,8.089477844E0,1.054774411E1
4.805790418E-1,-6.268963623E-1,6.821913757E0,7.943381653E0,1.048946226E1
4.905570417E-1,-5.980064392E-1,6.860383759E0,7.913743286E0,1.049046280E1
5.005350417E-1,-6.132746887E-1,6.845863953E0,8.054001617E0,1.058814909E1
5.105130418E-1,-6.056405640E-1,6.844965820E0,8.194259949E0,1.069421590E1
5.204910417E-1,-5.041516113E-1,6.851552124E0,8.229736176E0,1.072037746E1
5.304690417E-1,-3.402424622E-1,6.868616638E0,8.171507263E0,1.068022427E1
5.404470417E-1,-2.216889954E-1,6.910230103E0,8.021369476E0,1.058974949E1
5.504250417E-1,-2.014810181E-1,6.932084656E0,7.933651886E0,1.053742020E1
5.604030417E-1,-1.998344421E-1,6.962471466E0,7.784112854E0,1.044549451E1
5.703810417E-1,-2.609074402E-1,6.952142944E0,7.661667480E0,1.034898608E1
5.803590417E-1,-3.577560425E-1,6.946155396E0,7.547754364E0,1.026380339E1
5.903370418E-1,-4.617897034E-1,6.949448547E0,7.440726929E0,1.019178601E1
6.003150417E-1,-5.327421570E-1,6.928791504E0,7.354805603E0,1.011855382E1
6.102930417E-1,-5.523513794E-1,6.883735199E0,7.218888245E0,9.990157648E0
6.202710418E-1,-5.237608337E-1,6.841972046E0,7.103627930E0,9.876661210E0
6.302480417E-1,-4.896318054E-1,6.819369049E0,7.014712830E0,9.795393285E0
6.402260417E-1,-4.540058899E-1,6.789730682E0,6.874005432E0,9.672565056E0
6.502040417E-1,-4.062551880E-1,6.734495544E0,6.766379242E0,9.555226924E0
6.601820417E-1,-3.155438232E-1,6.669231262E0,6.655609589E0,9.427372515E0
6.701600417E-1,-1.736389160E-1,6.618935852E0,6.559060364E0,9.319964332E0
6.801380417E-1,-5.478607178E-2,6.575376434E0,6.478527832E0,9.230920844E0
6.901160417E-1,-1.886077881E-2,6.491401062E0,6.527176666E0,9.205578673E0
7.000940418E-1,6.152206421E-2,6.423442383E0,6.716832275E0,9.294096665E0
7.100720417E-1,2.384541321E-1,6.451883240E0,6.856192474E0,9.417591675E0
7.200500417E-1,3.628454590E-1,6.360573120E0,6.944059753E0,9.423826882E0
7.300280418E-1,4.508624268E-1,6.290668488E0,6.904841309E0,9.351610580E0
7.400060417E-1,4.553530884E-1,6.267616425E0,6.763684845E0,9.232431682E0
7.499840417E-1,4.218228149E-1,6.244264984E0,6.675218811E0,9.150263704E0
7.599620417E-1,4.926255798E-1,6.251599731E0,6.610702972E0,9.111891843E0
7.699400417E-1,6.541397095E-1,6.290069733E0,6.469845886E0,9.047197455E0
7.799170417E-1,6.721023560E-1,6.263574829E0,6.288872223E0,8.901348496E0
7.898950417E-1,5.849835205E-1,6.200256500E0,6.273454285E0,8.839774604E0
7.998730417E-1,4.698728943E-1,6.190377045E0,6.297404480E0,8.843011460E0
8.098510418E-1,2.906954956E-1,6.197412415E0,6.257437592E0,8.811807404E0
8.198290417E-1,1.826202393E-1,6.189478912E0,6.246360626E0,8.795454532E0
8.298070417E-1,2.993774414E-2,6.267766113E0,6.325845337E0,8.905173078E0
8.397850418E-1,7.005432129E-2,6.307433624E0,6.470744019E0,9.036545506E0
8.497630417E-1,1.535806274E-1,6.360573120E0,6.399043121E0,9.023759211E0
8.597410417E-1,2.263293457E-1,6.424190826E0,6.278543701E0,8.985630960E0
8.697190417E-1,1.531315613E-1,6.404132538E0,6.281088409E0,8.971534676E0
8.796970417E-1,9.175918579E-2,6.416556702E0,6.347400513E0,9.026079599E0
8.896750417E-1,1.378633118E-1,6.448440399E0,6.443500671E0,9.117022034E0
8.996530417E-1,2.398013306E-1,6.403982849E0,6.622079315E0,9.215228454E0
9.096310417E-1,3.523672485E-1,6.344406738E0,6.740782471E0,9.263574248E0
9.196090418E-1,4.218228149E-1,6.270610199E0,6.803502045E0,9.262080049E0
9.295860417E-1,4.101470947E-1,6.174210663E0,6.886429596E0,9.258078123E0
9.395640417E-1,3.876937866E-2,6.019282837E0,7.207511902E0,9.390500346E0
9.495420418E-1,-8.652008057E-2,6.125861206E0,7.362439728E0,9.578057214E0
9.595200417E-1,2.028282166E-1,6.400839386E0,7.701035614E0,1.001587908E1
9.694980417E-1,9.086105347E-2,6.235583038E0,8.047415314E0,1.018094518E1
9.794760417E-1,-8.262817383E-2,6.017636261E0,8.206534424E0,1.017673724E1
9.894540417E-1,-2.737806702E-1,6.075266418E0,8.488098907E0,1.044182173E1
9.994320417E-1,-6.212081909E-2,6.237379303E0,8.703800354E0,1.070816979E1
1.009410042E0,3.131488037E-1,6.202651520E0,8.631949768E0,1.063397879E1
1.019388042E0,6.023474121E-1,6.031557312E0,8.476572876E0,1.042088258E1
1.029366042E0,9.044192505E-1,5.972579956E0,8.348289642E0,1.030454392E1
1.039344042E0,1.136586456E0,5.945186920E0,8.366401978E0,1.032636230E1
1.049322042E0,1.187181244E0,5.853278046E0,8.430618439E0,1.033177576E1
1.059300042E0,1.226250000E0,5.770799561E0,8.450077972E0,1.030580586E1
1.069278042E0,1.263372803E0,5.758525085E0,8.422984314E0,1.028121524E1
1.079255042E0,1.291514282E0,5.716612244E0,8.399183807E0,1.024177491E1
1.089233042E0,1.178948364E0,5.707780609E0,8.295000458E0,1.013783563E1
1.099211042E0,9.818083191E-1,5.761668549E0,8.219557343E0,1.008572729E1
1.109189042E0,8.393046570E-1,5.810167694E0,8.159532166E0,1.005188769E1
1.119167042E0,8.018824768E-1,5.854026489E0,8.201445007E0,1.010823139E1
1.129145042E0,8.068222046E-1,5.882317657E0,8.268056488E0,1.017906583E1
1.139123042E0,8.553213501E-1,5.927373962E0,8.256680145E0,1.019990704E1
1.149101042E0,8.753796387E-1,5.961502991E0,8.183632050E0,1.016256075E1
1.159079042E0,8.140072632E-1,6.018085327E0,8.190068665E0,1.019593956E1
1.169057042E0,7.238946533E-1,6.078709259E0,8.056696014E0,1.011855130E1
1.179035042E0,6.991960144E-1,6.111491089E0,7.919880524E0,1.002814569E1
1.189013042E0,7.056326294E-1,6.170917511E0,7.781568146E0,9.956452337E0
1.198991042E0,6.721023560E-1,6.261179810E0,7.669451294E0,9.923435763E0
1.208969042E0,5.911207581E-1,6.322402496E0,7.556436310E0,9.870254646E0
1.218946042E0,4.487667847E-1,6.345604248E0,7.450007629E0,9.796463575E0
1.228924042E0,3.263214111E-1,6.416107635E0,7.281907196E0,9.710772125E0
1.238902042E0,2.110610962E-1,6.455775146E0,7.183561707E0,9.660493689E0
1.248880042E0,1.541793823E-1,6.467450867E0,7.224726105E0,9.697853334E0
1.258858042E0,2.137554932E-1,6.460116119E0,7.291786652E0,9.744174889E0
1.268836042E0,3.011737061E-1,6.438710632E0,7.374863892E0,9.794708655E0
1.278814042E0,3.620970154E-1,6.413712616E0,7.388635254E0,9.790748423E0
1.288792042E0,4.468208313E-1,6.416407013E0,7.472910004E0,9.859731829E0
1.298770042E0,4.974156189E-1,6.429280243E0,7.553143158E0,9.931416732E0
1.308748042E0,5.313949585E-1,6.411916351E0,7.494315491E0,9.877237295E0
1.318726042E0,5.755531311E-1,6.405629425E0,7.420219574E0,9.819521794E0
1.328704042E0,5.530998230E-1,6.400390320E0,7.342531128E0,9.756212330E0
1.338682042E0,5.550457764E-1,6.427933044E0,7.278763733E0,9.726602722E0
1.348660042E0,5.078938293E-1,6.456373901E0,7.215445404E0,9.695636775E0
1.358637042E0,4.815486145E-1,6.464157715E0,7.189249878E0,9.680007120E0
1.368615042E0,4.349954224E-1,6.481820984E0,7.159162445E0,9.667307340E0
1.378593042E0,4.429289246E-1,6.490502930E0,7.220235443E0,9.718776372E0
1.388571042E0,5.553451538E-1,6.479126587E0,7.358697510E0,9.820280984E0
1.398549042E0,6.471043396E-1,6.488407288E0,7.492668915E0,9.932686476E0
1.408527042E0,6.195616150E-1,6.492748260E0,7.481891327E0,9.925640251E0
1.418505167E0,5.742059326E-1,6.472689972E0,7.451504517E0,9.886877540E0
1.428483167E0,5.092410278E-1,6.521189117E0,7.501949615E0,9.953114184E0
1.438461167E0,4.096980286E-1,6.590195618E0,7.461383972E0,9.963472363E0
1.448439167E0,3.641926575E-1,6.594386902E0,7.393425293E0,9.913693180E0
1.458417167E0,3.394940186E-1,6.570885773E0,7.321275330E0,9.843417520E0
1.468395167E0,3.796105957E-1,6.576873322E0,7.231611786E0,9.782411559E0
1.478373167E0,3.585044861E-1,6.595734100E0,7.172035675E0,9.750401505E0
1.488350167E0,3.158432007E-1,6.635700989E0,7.199279022E0,9.796014648E0
1.498328167E0,2.746788025E-1,6.646328888E0,7.236252136E0,9.829164823E0
1.508306167E0,2.344125366E-1,6.678511963E0,7.198680267E0,9.822345385E0
1.518284167E0,1.856140137E-1,6.693780212E0,7.174430695E0,9.813949352E0
1.528262167E0,1.630110168E-1,6.678511963E0,7.233108673E0,9.846164518E0
1.538240167E0,1.649569702E-1,6.705156555E0,7.273524628E0,9.893962590E0
1.548218167E0,2.074685669E-1,6.720125427E0,7.268884277E0,9.901505320E0
1.558196167E0,2.447410583E-1,6.734046478E0,7.362739105E0,9.980842013E0
1.568174167E0,2.722837830E-1,6.768923950E0,7.426207123E0,1.005191634E1
1.578152167E0,2.475851440E-1,6.804400177E0,7.400161285E0,1.005602045E1
1.588130167E0,1.842668152E-1,6.829996948E0,7.300767975E0,9.999201248E0
1.598108167E0,1.085243225E-1,6.835236053E0,7.227869568E0,9.948584217E0
1.608086167E0,7.918533325E-2,6.853647766E0,7.205565948E0,9.944794551E0
1.618063167E0,1.378633118E-1,6.877448273E0,7.185956726E0,9.947676870E0
1.628041167E0,1.698966980E-1,6.867119751E0,7.236401825E0,9.977560320E0
1.638019167E0,1.983375549E-1,6.900200958E0,7.233258362E0,9.998606782E0
1.647997167E0,2.053729248E-1,6.945706329E0,7.124135284E0,9.951799737E0
1.657975167E0,1.511856079E-1,6.981481934E0,6.978039093E0,9.872030017E0
1.667953167E0,6.975494385E-2,6.980434113E0,6.713688812E0,9.685295226E0
1.677931167E0,5.149291992E-2,6.962022400E0,6.420598297E0,9.470823085E0
1.687909167E0,6.047424316E-2,6.972949677E0,6.262377319E0,9.372462537E0
1.697887167E0,3.757186890E-2,6.968758392E0,6.188131714E0,9.319762834E0
1.707865167E0,-4.370910645E-2,6.941964111E0,6.104156342E0,9.244106276E0
1.717843167E0,-8.951385498E-2,6.977889404E0,5.751340027E0,9.043056197E0
1.727821167E0,-1.775308228E-1,6.989415436E0,5.247338104E0,8.741739101E0
1.737798167E0,-2.389031982E-1,6.853198700E0,4.939278717E0,8.451028423E0
1.747776167E0,-2.008822632E-1,6.630461884E0,4.823569336E0,8.201841233E0
1.757754167E0,-1.050814819E-1,6.424190826E0,4.771777039E0,8.003194737E0
1.767732167E0,2.158511353E-1,6.183491364E0,4.907095642E0,7.896945283E0
1.777710167E0,5.921685791E-1,5.946983185E0,5.133574677E0,7.878506304E0
1.787688167E0,8.367599487E-1,5.666915588E0,5.416486359E0,7.883680864E0
1.797666167E0,1.049766998E0,5.416037292E0,5.919440460E0,8.091677580E0
1.807644167E0,1.236428833E0,5.232369232E0,6.374045105E0,8.338758603E0
1.817622167E0,1.197210388E0,4.961732025E0,6.619983673E0,8.359203385E0
1.827600167E0,1.188678131E0,4.629572754E0,6.973997498E0,8.454734808E0
1.837578167E0,1.207838287E0,4.307143250E0,7.400161285E0,8.647123415E0
1.847556167E0,1.067729645E0,4.008813629E0,8.078251190E0,9.081232053E0
1.857534167E0,8.349636841E-1,3.802841949E0,8.797804871E0,9.620818145E0
1.867511167E0,6.310876465E-1,3.666026459E0,9.353299713E0,1.006589475E1
1.877489167E0,4.619393921E-1,3.589236145E0,9.896071014E0,1.053699320E1
1.887467167E0,2.535726929E-1,3.503314819E0,1.043779449E1,1.101295000E1
1.897445167E0,1.197509766E-1,3.359613647E0,1.074660233E1,1.126014235E1
1.907423167E0,7.798782349E-2,3.243305511E0,1.094838272E1,1.141894027E1
1.917401167E0,1.963916016E-1,3.179687805E0,1.117067047E1,1.161606056E1
1.927379167E0,4.141886902E-1,3.126847687E0,1.126961472E1,1.170268963E1
1.937357167E0,5.432203674E-1,3.052302704E0,1.116543137E1,1.158785993E1
1.947335167E0,6.421646118E-1,2.977009277E0,1.080393311E1,1.122496905E1
1.957313167E0,7.505392456E-1,2.937641144E0,1.020637573E1,1.064721326E1
1.967291167E0,7.592211914E-1,2.976111145E0,9.614656219E0,1.009332792E1
1.977269167E0,7.090754700E-1,2.959346008E0,9.268725586E0,9.755500541E0
1.987246167E0,6.405180359E-1,2.866838379E0,9.096284180E0,9.558839444E0
1.997224167E0,5.734574890E-1,2.759361877E0,8.920848999E0,9.355451797E0
2.007202167E0,4.740641785E-1,2.651286621E0,8.748706970E0,9.153902514E0
2.017180167E0,4.219725037E-1,2.512375488E0,8.680299225E0,9.046418408E0
2.027158167E0,4.884342957E-1,2.406395874E0,8.825197906E0,9.160427242E0
2.037136167E0,5.315446472E-1,2.351460114E0,9.257349243E0,9.566107849E0
2.047114167E0,5.234614563E-1,2.207609253E0,9.965376892E0,1.022038586E1
2.057092167E0,5.563929749E-1,2.097288666E0,1.032657578E1,1.055207847E1
2.067070167E0,6.069877625E-1,1.918410645E0,1.028675858E1,1.048170480E1
2.077048167E0,5.980064392E-1,1.823807373E0,1.018931122E1,1.036850752E1
2.087026167E0,5.192701721E-1,1.690135345E0,9.853260040E0,1.001064096E1
2.097004167E0,5.487588501E-1,1.530267792E0,9.453740845E0,9.592500808E0
2.106981167E0,6.176156616E-1,1.483714600E0,9.164991302E0,9.304833351E0
2.116959167E0,5.285508728E-1,1.250649261E0,9.059460754E0,9.160639648E0
2.126937167E0,4.360432434E-1,1.012793884E0,8.940907288E0,9.008646307E0
2.136915167E0,5.960604858E-1,1.196312256E0,8.303682404E0,8.410564343E0
2.146893167E0,4.101470947E-1,8.458909607E-1,8.394992523E0,8.447464212E0
2.156871167E0,1.336720276E-1,1.669029236E-1,8.924291840E0,8.926853289E0
2.166849167E0,2.875520325E-1,-1.585203552E-1,9.152417450E0,9.158305523E0
2.176827167E0,5.330415344E-1,-3.977229309E-1,9.507179718E0,9.530413580E0
2.186805167E0,8.051756287E-1,-3.899391174E-1,9.955347748E0,9.995464426E0
2.196783167E0,9.904902649E-1,-3.311114502E-1,1.013138168E1,1.018506753E1
2.206761167E0,9.265731812E-1,-3.659889221E-1,1.019425095E1,1.024281397E1
2.216738167E0,5.921685791E-1,-5.420228577E-1,1.004965164E1,1.008166408E1
2.226716167E0,1.920506287E-1,-8.590635681E-1,9.965227203E0,1.000403053E1
2.236694167E0,7.679031372E-2,-1.236279144E0,1.004561005E1,1.012168781E1
2.246672167E0,1.713935852E-1,-1.544338531E0,9.962832184E0,1.008327240E1
2.256650167E0,2.728825378E-1,-1.530866547E0,9.644743652E0,9.769293597E0
2.266628167E0,2.158511353E-1,-1.561552734E0,9.595945129E0,9.724566910E0
2.276606167E0,3.607498169E-2,-1.732646942E0,9.769434357E0,9.921956182E0
2.286584167E0,-9.430389404E-2,-1.974244537E0,9.758656769E0,9.956802531E0
2.296562167E0,-2.168989563E-1,-2.242187347E0,9.798473969E0,1.005408083E1
2.306540167E0,-1.956431580E-1,-2.490970001E0,9.854906616E0,1.016672967E1
2.316518167E0,-1.630110168E-1,-2.686762848E0,9.911638641E0,1.027063035E1
2.326495167E0,-2.215393066E-1,-2.788102112E0,1.011207184E1,1.049173913E1
2.336473167E0,-2.143542480E-1,-2.870131531E0,1.005414230E1,1.045798165E1
2.346451167E0,-2.927911377E-1,-2.908302155E0,9.870773621E0,1.029447036E1
2.356429167E0,-4.360432434E-1,-3.013832703E0,9.719737701E0,1.018560859E1
2.366407167E0,-4.578977966E-1,-3.158881073E0,9.686656494E0,1.019899574E1
2.376385167E0,-3.993695068E-1,-3.323688354E0,9.846224670E0,1.039973752E1
2.386363167E0,-3.956272888E-1,-3.447929993E0,1.010264145E1,1.068213960E1
2.396341167E0,-4.305047607E-1,-3.603606262E0,1.025726990E1,1.088039053E1
2.406319167E0,-4.954696655E-1,-3.732637939E0,1.027942383E1,1.094735723E1
2.416296792E0,-5.231620789E-1,-3.861968994E0,1.015772690E1,1.087970215E1
2.426274792E0,-5.914201355E-1,-3.916755066E0,1.001222946E1,1.076733425E1
2.436252792E0,-6.246510315E-1,-3.897744598E0,9.875863037E0,1.063556640E1
2.446229792E0,-5.816903687E-1,-3.892505493E0,9.694739685E0,1.046317066E1
2.456207792E0,-5.162763977E-1,-3.930676117E0,9.664801941E0,1.044629851E1
2.466185792E0,-5.044509888E-1,-3.986959076E0,9.709409180E0,1.050823202E1
2.476163792E0,-5.111869812E-1,-3.968247986E0,9.844129028E0,1.062615549E1
2.486141792E0,-5.379812622E-1,-3.941453705E0,1.010219238E1,1.085719909E1
2.496119792E0,-5.089416504E-1,-3.923341370E0,1.038959473E1,1.111734265E1
2.506097792E0,-4.957690430E-1,-3.876339111E0,1.059227325E1,1.129017469E1
2.516075792E0,-5.370831299E-1,-3.804039459E0,1.093940140E1,1.159438129E1
2.526053792E0,-4.718188477E-1,-3.680845642E0,1.146989822E1,1.205528112E1
2.536031792E0,-3.905378723E-1,-3.573369141E0,1.202539307E1,1.255115792E1
2.546008792E0,-4.272116089E-1,-3.494782562E0,1.246398102E1,1.295171177E1
2.555986792E0,-3.857478333E-1,-3.406017151E0,1.268192780E1,1.313701057E1
2.565964792E0,-2.841091919E-1,-3.373534698E0,1.283221527E1,1.327129244E1
2.575942792E0,-4.724176025E-1,-3.363355865E0,1.270976990E1,1.315574369E1
2.585920792E0,-7.429051208E-1,-3.335663452E0,1.211251190E1,1.258536862E1
2.595898792E0,-7.920030212E-1,-3.363505554E0,1.148801056E1,1.199645052E1
2.605876792E0,-8.529263306E-1,-3.254382477E0,1.148621429E1,1.196877636E1
2.615854792E0,-8.497828674E-1,-3.037932587E0,1.156794434E1,1.199035035E1
2.625832792E0,-5.529501343E-1,-2.680924988E0,1.148771118E1,1.180934464E1
2.635810792E0,-3.384461975E-1,-2.198478241E0,1.150058441E1,1.171372247E1
2.645788792E0,-2.507286072E-1,-1.617087250E0,1.114896561E1,1.126841915E1
2.655765792E0,-2.194436646E-1,-1.195563812E0,1.074779984E1,1.081631775E1
2.665743792E0,-3.667373657E-2,-6.704557800E-1,1.050485504E1,1.052629257E1
2.675721792E0,1.263372803E-1,-1.350192261E-1,1.021131546E1,1.021298951E1
2.685699792E0,2.616558838E-1,3.124003601E-1,9.358538818E0,9.367406610E0
2.695677792E0,3.676354980E-1,1.033151550E0,8.468639374E0,8.539344871E0
2.705655792E0,4.272116089E-1,1.798959045E0,7.450606384E0,7.676607252E0
2.715633792E0,5.104385376E-1,2.482737122E0,6.742728424E0,7.203396263E0
2.725611792E0,5.751040649E-1,2.932102661E0,6.897057495E0,7.516473428E0
2.735589792E0,6.357279968E-1,3.352877655E0,6.790179749E0,7.599505226E0
2.745567792E0,5.581892395E-1,3.907324677E0,7.098987579E0,8.122461819E0
2.755544792E0,1.386117554E-1,4.356839905E0,7.592511292E0,8.754855503E0
2.765522792E0,-4.775070190E-1,4.516557770E0,7.549999695E0,8.810777629E0
2.775500792E0,-6.719526672E-1,4.533771973E0,7.470964050E0,8.764811038E0
2.785478792E0,-5.186714172E-1,4.582121429E0,7.475604401E0,8.783479834E0
2.795456792E0,-2.300715637E-1,4.678670654E0,7.344177704E0,8.710903407E0
2.805434792E0,-3.427871704E-2,4.889282684E0,7.159910889E0,8.670097124E0
2.815412792E0,1.276844788E-1,5.121898956E0,7.083270264E0,8.742017494E0
2.825390792E0,2.395019531E-1,5.335953827E0,6.971752167E0,8.782658635E0
2.835368792E0,1.983375549E-1,5.567522278E0,6.713539124E0,8.724004222E0
2.845346792E0,2.070195007E-1,5.725294189E0,6.443800049E0,8.622320436E0
2.855324792E0,2.960842896E-1,5.868845673E0,6.182892609E0,8.529898970E0
2.865301792E0,3.498225403E-1,6.062542877E0,6.072572021E0,8.587952777E0
2.875279792E0,3.143463135E-1,6.223158875E0,6.412515106E0,8.941301358E0
2.885257792E0,1.425036621E-1,6.373745728E0,6.490203552E0,9.097674650E0
2.895235792E0,5.224136353E-2,6.512507172E0,6.498586121E0,9.200385883E0
2.905213792E0,1.942959595E-1,6.557563477E0,6.681356049E0,9.363755033E0
2.915191792E0,2.164498901E-1,6.558760986E0,6.509363708E0,9.243160289E0
2.925169792E0,2.077679443E-1,6.659202118E0,6.121220856E0,9.047512649E0
2.935147792E0,1.836680603E-1,6.793921967E0,5.789660339E0,8.928117186E0
2.945125792E0,2.769241333E-2,6.918612671E0,5.487438812E0,8.830625849E0
2.955103792E0,-1.589694214E-1,7.029082947E0,5.168601837E0,8.726266286E0
2.965080792E0,-3.103047180E-1,7.035669250E0,5.039121094E0,8.659657743E0
2.975058792E0,-3.496728516E-1,7.095095673E0,5.004093933E0,8.689281317E0
2.985036792E0,-3.698808289E-1,7.202123108E0,4.990322571E0,8.769875053E0
2.995014792E0,-3.062631226E-1,7.259453888E0,5.248685303E0,8.963379121E0
3.004992792E0,-1.014889526E-1,7.320227509E0,5.370232544E0,9.079395815E0
3.014970792E0,-9.879455566E-2,7.343878326E0,5.300926666E0,9.057711232E0
3.024948792E0,-2.112107849E-1,7.429200897E0,5.348827057E0,9.156832796E0
3.034926792E0,-3.420387268E-1,7.459737396E0,5.437742157E0,9.237624818E0
3.044904792E0,-3.764671326E-1,7.480544128E0,5.610932007E0,9.358569653E0
3.054882792E0,-3.649411011E-1,7.481292572E0,5.892197113E0,9.530000387E0
3.064859792E0,-3.146456909E-1,7.489675140E0,6.168971558E0,9.708266874E0
3.074837792E0,-2.326162720E-1,7.507338409E0,6.320755920E0,9.816628532E0
3.084815792E0,-2.365081787E-1,7.464976501E0,6.479725342E0,9.887803133E0
3.094793792E0,-2.502795410E-1,7.429500275E0,6.662195892E0,9.982232630E0
3.104771792E0,-1.463955688E-1,7.431895294E0,6.831044769E0,1.009542827E1
3.114749792E0,-5.568420410E-2,7.439230042E0,7.002588043E0,1.021672568E1
3.124727792E0,-2.140548706E-2,7.461683350E0,7.070696411E0,1.027968503E1
3.134705792E0,6.885681152E-2,7.514673157E0,7.063062286E0,1.031319072E1
3.144683792E0,3.173400879E-2,7.499404907E0,7.104975128E0,1.033067048E1
3.154661792E0,4.266128540E-2,7.498806152E0,7.120692444E0,1.034109156E1
3.164638792E0,1.004411316E-1,7.555089111E0,6.996301117E0,1.029746033E1
3.174616792E0,2.724334717E-2,7.616012421E0,6.779252472E0,1.019620770E1
3.184594792E0,-8.187973022E-2,7.617808685E0,6.587501221E0,1.007138947E1
3.194572792E0,-1.106199646E-1,7.523504791E0,6.521937561E0,9.957461055E0
3.204550792E0,-2.380050659E-2,7.504943390E0,6.372847595E0,9.845706080E0
3.214528792E0,8.128097534E-2,7.497009888E0,6.181844788E0,9.717354004E0
3.224506792E0,1.634600830E-1,7.439679108E0,6.002667389E0,9.560730108E0
3.234484792E0,1.658551025E-1,7.374863892E0,5.900729370E0,9.446413734E0
3.244462792E0,2.142045593E-1,7.329508209E0,5.797444153E0,9.347616428E0
3.254440792E0,2.818638611E-1,7.281009064E0,5.732030182E0,9.270852724E0
3.264417792E0,1.850152588E-1,7.192992096E0,5.790408783E0,9.235919002E0
3.274395792E0,1.743873596E-1,7.098987579E0,6.019432526E0,9.309114004E0
3.284373792E0,3.592529297E-1,7.075486450E0,6.304589539E0,9.483639619E0
3.294351792E0,5.047503662E-1,7.049290924E0,6.593339081E0,9.665370955E0
3.304329792E0,5.523513794E-1,7.009773102E0,6.654711456E0,9.681280677E0
3.314307792E0,5.879772949E-1,6.948849792E0,6.648574219E0,9.635132063E0
3.324285792E0,6.694079590E-1,6.872059479E0,6.722071381E0,9.636366127E0
3.334263792E0,7.144642639E-1,6.884483643E0,6.799610138E0,9.702642539E0
3.344241792E0,7.122189331E-1,6.926097107E0,6.856641541E0,9.771980872E0
3.354219792E0,7.107220459E-1,6.948849792E0,6.856192474E0,9.787697099E0
3.364196792E0,6.795867920E-1,6.924749908E0,6.829847260E0,9.749913491E0
3.374174792E0,5.999523926E-1,6.924899597E0,6.984176331E0,9.853572769E0
3.384152792E0,4.769082642E-1,6.946604462E0,7.218588867E0,1.002949551E1
3.394130792E0,4.929249573E-1,7.040459290E0,7.216193848E0,1.009378500E1
3.404108792E0,5.746549988E-1,7.110513611E0,7.216942291E0,1.014760505E1
3.414086708E0,7.231462097E-1,7.099436646E0,7.307204590E0,1.021372508E1
3.424064708E0,7.912545776E-1,7.126979370E0,7.524702301E0,1.039428032E1
3.434042708E0,7.637118530E-1,7.192692719E0,7.642058258E0,1.052231623E1
3.444020708E0,7.854167175E-1,7.230414276E0,7.532336426E0,1.047052349E1
3.453998708E0,8.090675354E-1,7.194488983E0,7.498207397E0,1.042297348E1
3.463975708E0,8.027806091E-1,7.179071045E0,7.546706543E0,1.044683193E1
3.473953708E0,8.331674194E-1,7.218738556E0,7.609875183E0,1.052209839E1
3.483931708E0,9.081614685E-1,7.270530853E0,7.612569580E0,1.056582187E1
3.493909708E0,9.012757874E-1,7.308402100E0,7.563172302E0,1.055588057E1
3.503887708E0,8.553213501E-1,7.319628754E0,7.593110046E0,1.058129765E1
3.513865708E0,9.496252441E-1,7.313940582E0,7.550897827E0,1.055516807E1
3.523843708E0,1.066681824E0,7.323520660E0,7.403155060E0,1.046797353E1
3.533821708E0,1.036893768E0,7.352260895E0,7.211403809E0,1.035061514E1
3.543799708E0,9.672885132E-1,7.278614044E0,7.085365906E0,1.020373851E1
3.553776708E0,8.422984314E-1,7.200626221E0,6.903643799E0,1.001093314E1
3.563754708E0,6.848258972E-1,7.187303925E0,6.593339081E0,9.777445702E0
3.573732708E0,6.092330933E-1,7.106921082E0,6.271807709E0,9.498161093E0
3.583710708E0,6.547384644E-1,6.953041077E0,5.955814819E0,9.178518009E0
3.593688708E0,5.828878784E-1,6.822512512E0,5.800288239E0,8.973838583E0
3.603666708E0,5.183720398E-1,6.706952820E0,5.790259094E0,8.875754958E0
3.613644708E0,3.665876770E-1,6.878795471E0,5.810766449E0,9.012059719E0
3.623622708E0,-4.101470947E-1,7.094496918E0,5.840853882E0,9.198678232E0
3.633600708E0,-1.065184937E0,7.259004822E0,5.536686401E0,9.191445276E0
3.643578708E0,-1.472937012E0,7.360643463E0,5.151986389E0,9.104481280E0
3.653555708E0,-1.446891174E0,7.584877167E0,4.895419922E0,9.142701566E0
3.663533708E0,-1.548080750E0,7.413633270E0,5.211263123E0,9.193246195E0
3.673511708E0,-1.563798065E0,7.088958435E0,5.438490601E0,9.070610569E0
3.683489708E0,-1.799557800E0,7.016359406E0,5.888005829E0,9.334683724E0
3.693467708E0,-2.092199249E0,7.063810730E0,6.457571411E0,9.796680471E0
3.703445708E0,-2.312391357E0,7.115603027E0,7.104376373E0,1.031751539E1
3.713423708E0,-2.493814087E0,7.129823456E0,7.580386505E0,1.070120324E1
3.723401708E0,-2.772833862E0,7.121590576E0,7.793992310E0,1.091567570E1
3.733379708E0,-3.099304962E0,7.090754700E0,7.875123596E0,1.104092682E1
3.743356708E0,-3.352278900E0,7.025640106E0,7.652087402E0,1.091566921E1
3.753334708E0,-3.480711823E0,6.917564850E0,7.318730621E0,1.065513379E1
3.763312708E0,-3.585942993E0,6.867868195E0,7.039561157E0,1.046814320E1
3.773290708E0,-3.538940735E0,6.923103333E0,6.672823792E0,1.024597670E1
3.783268708E0,-3.404220886E0,7.081174622E0,6.307283936E0,1.007539501E1
3.793246708E0,-3.298540649E0,7.243137817E0,5.995781708E0,9.964577971E0
3.803224708E0,-3.219355316E0,7.337890778E0,5.705385590E0,9.836682085E0
3.813202708E0,-3.123105469E0,7.394473114E0,5.470823364E0,9.714006830E0
3.823180708E0,-3.060834961E0,7.499105530E0,5.241500244E0,9.647726116E0
3.833157708E0,-3.140768738E0,7.538773041E0,5.006788330E0,9.579428825E0
3.843135708E0,-3.070115662E0,7.580386505E0,4.879702606E0,9.523621542E0
3.853113708E0,-3.022664337E0,7.722740479E0,4.858446808E0,9.611541270E0
3.863091708E0,-3.147953796E0,7.760911102E0,4.896916809E0,9.701605459E0
3.873069708E0,-3.142714691E0,7.789202271E0,4.932542725E0,9.740549542E0
3.883047708E0,-3.139870605E0,7.790998535E0,4.918471985E0,9.733951523E0
3.893025708E0,-3.135679321E0,7.821684723E0,4.638105011E0,9.618900915E0
3.903003708E0,-3.166215820E0,7.775430908E0,4.567601624E0,9.557470011E0
3.912981708E0,-3.182980957E0,7.642207947E0,4.810995483E0,9.574987604E0
3.922958708E0,-3.136128387E0,7.582931213E0,4.805307312E0,9.509317821E0
3.932936708E0,-3.049009552E0,7.551496582E0,4.785099335E0,9.445566977E0
3.942914708E0,-2.885399780E0,7.493417358E0,5.114713898E0,9.520353662E0
3.952892708E0,-2.625689850E0,7.510032806E0,5.605992279E0,9.732522251E0
3.962870708E0,-2.620750122E0,7.549700317E0,6.251300354E0,1.014618461E1
3.972848708E0,-2.594853973E0,7.771688690E0,6.451284485E0,1.042839795E1
3.982826708E0,-2.484383698E0,7.839497681E0,6.407575378E0,1.042530136E1
3.992804708E0,-2.228565674E0,7.660469971E0,6.411467285E0,1.023504850E1
4.002782708E0,-1.996697845E0,7.478747864E0,6.394253082E0,1.004016655E1
4.012759708E0,-1.750459900E0,7.417974243E0,6.327641602E0,9.906033514E0
4.022737708E0,-1.437161407E0,7.522456970E0,6.266568604E0,9.895588605E0
4.032715708E0,-1.071621552E0,7.656128998E0,6.201304321E0,9.910643736E0
4.042693708E0,-6.307882690E-1,7.760162659E0,6.193819885E0,9.948940803E0
4.052671708E0,-2.957849121E-1,7.727380829E0,6.148763580E0,9.879635457E0
4.062649708E0,-2.080673218E-2,7.840545502E0,6.282435608E0,1.004706842E1
4.072627708E0,4.275109863E-1,7.962392120E0,6.343957672E0,1.018961495E1
4.082605708E0,8.563691711E-1,8.027656403E0,6.408323822E0,1.030743662E1
4.092583708E0,1.178798676E0,8.145162048E0,6.348298645E0,1.039394664E1
4.102560708E0,1.402882690E0,8.128396912E0,6.296955414E0,1.037740640E1
4.112538708E0,1.576222229E0,8.044271851E0,6.430178375E0,1.041834824E1
4.122516708E0,1.603764954E0,8.054001617E0,6.392157440E0,1.040666521E1
4.132494708E0,1.405277710E0,8.095016327E0,6.222260742E0,1.030633900E1
4.142472708E0,1.137035522E0,8.103099518E0,6.045927429E0,1.017380509E1
4.152450708E0,8.659492493E-1,7.978109436E0,5.806874542E0,9.905548457E0
4.162428708E0,5.137316895E-1,7.942034454E0,5.479654999E0,9.662631651E0
4.172406708E0,1.022373962E-1,7.961044922E0,5.102589111E0,9.456484779E0
4.182384708E0,-2.022294617E-1,7.963589630E0,4.920417938E0,9.363234977E0
4.192361708E0,-3.038681030E-1,7.891888733E0,5.009632416E0,9.352575075E0
4.202339708E0,-3.043171692E-1,7.780819702E0,5.063670044E0,9.288407748E0
4.212317708E0,-4.709207153E-1,7.698490906E0,5.079986115E0,9.235517715E0
4.222295708E0,-5.993536377E-1,7.671846313E0,5.100942535E0,9.232338024E0
4.232273708E0,-6.131250000E-1,7.731871490E0,5.036127319E0,9.247720659E0
4.242251708E0,-5.017565918E-1,7.760162659E0,4.905000000E0,9.194069239E0
4.252229708E0,-5.165757751E-1,7.772137756E0,4.901706848E0,9.203244312E0
4.262207708E0,-6.221063232E-1,7.777676239E0,5.141957245E0,9.344462974E0
4.272185708E0,-7.357200623E-1,7.882907410E0,5.331463165E0,9.544946973E0
4.282162708E0,-8.369096375E-1,7.912695465E0,5.406756592E0,9.619988779E0
4.292140708E0,-9.330097961E-1,7.619006195E0,5.650749207E0,9.531564891E0
4.302118708E0,-7.990383911E-1,7.957003326E0,5.554649048E0,9.736862448E0
4.312096708E0,-6.403683472E-1,8.221952362E0,5.229824524E0,9.765328300E0
4.322074708E0,-5.652246094E-1,8.473279724E0,4.882397003E0,9.795598432E0
4.332052708E0,-4.369413757E-1,8.586145020E0,4.683161316E0,9.790035954E0
4.342030708E0,-4.315525818E-1,8.587791595E0,4.568948822E0,9.737129734E0
4.352008708E0,-5.017565918E-1,8.446485443E0,4.267026672E0,9.476412435E0
4.361986708E0,-3.062631226E-1,8.576265564E0,3.965852966E0,9.453788546E0
4.371963708E0,-1.646575928E-3,8.842711487E0,4.292024689E0,9.829294231E0
4.381941708E0,6.646179199E-2,8.924291840E0,4.509971466E0,9.999362211E0
4.391919708E0,3.203338623E-2,9.025481415E0,4.165986786E0,9.940613000E0
4.401897708E0,-1.116677856E-1,8.956474915E0,4.164190521E0,9.877823408E0
4.411875708E0,-4.092489624E-1,8.778195648E0,4.216731262E0,9.747052174E0
4.421853417E0,-7.216493225E-1,8.584648132E0,4.249064026E0,9.605805869E0
4.431831417E0,-1.105451202E0,8.405321045E0,4.435426483E0,9.567886513E0
4.441809417E0,-1.453926544E0,8.269553375E0,4.800068207E0,9.671611562E0
4.451787417E0,-2.095193024E0,7.959398346E0,5.697452087E0,1.001013567E1
4.461764417E0,-2.919229431E0,7.519163818E0,6.567442932E0,1.040149180E1
4.471742417E0,-3.299887848E0,7.139253845E0,7.053482208E0,1.056455472E1
4.481720417E0,-3.465892639E0,6.898554382E0,7.087910614E0,1.048050291E1
4.491698417E0,-3.501967621E0,7.002438354E0,6.889123993E0,1.042870795E1
4.501676417E0,-3.353177032E0,7.346123657E0,6.628815308E0,1.044751269E1
4.511654417E0,-3.230731659E0,7.787555695E0,6.337970123E0,1.054767823E1
4.521632417E0,-3.132535858E0,8.124654694E0,5.962700500E0,1.055351089E1
4.531610417E0,-3.008294220E0,8.417745209E0,5.696404266E0,1.059987217E1
4.541587417E0,-2.820584564E0,8.627309418E0,5.612728271E0,1.067187349E1
4.551565417E0,-2.644850006E0,8.848848724E0,5.829028473E0,1.092130616E1
4.561543417E0,-2.427202606E0,8.983418884E0,6.074068909E0,1.111249029E1
4.571521417E0,-2.232906647E0,9.073082428E0,6.278394012E0,1.125721672E1
4.581499417E0,-2.094743958E0,9.072034607E0,6.326743469E0,1.125688443E1
4.591477417E0,-1.997446289E0,9.100176086E0,6.268364868E0,1.122922057E1
4.601455417E0,-1.875599670E0,9.147178345E0,6.261329498E0,1.124246383E1
4.611433417E0,-1.793719940E0,9.114695892E0,6.309678955E0,1.122974447E1
4.621410417E0,-1.715582428E0,9.019344177E0,6.457571411E0,1.122461674E1
4.631388417E0,-1.692979431E0,8.813073120E0,6.581363983E0,1.112882694E1
4.641366417E0,-1.695524139E0,8.659043427E0,6.731202393E0,1.109787911E1
4.651344417E0,-1.628164215E0,8.476572876E0,6.777306519E0,1.097429224E1
4.661322417E0,-1.383722534E0,8.402177582E0,6.483766937E0,1.070282719E1
4.671300417E0,-1.122964783E0,8.450676727E0,6.504873047E0,1.072326258E1
4.681278417E0,-1.000369720E0,8.491092682E0,6.073919220E0,1.048770181E1
4.691256417E0,-1.037791901E0,8.449479218E0,5.714067535E0,1.025286686E1
4.701234417E0,-9.936337280E-1,8.350085907E0,6.022575989E0,1.034324244E1
4.711211417E0,-1.064735870E0,8.265062714E0,6.051316223E0,1.029870633E1
4.721189417E0,-1.120569763E0,8.119714966E0,5.909860382E0,1.010504317E1
4.731167417E0,-9.879455566E-1,7.954608307E0,5.761069794E0,9.871259034E0
4.741145417E0,-8.710386658E-1,7.944429474E0,5.522465973E0,9.714437629E0
4.751123417E0,-6.460565186E-1,7.838449860E0,5.490731964E0,9.592018699E0
4.761101417E0,-3.993695068E-1,7.746241608E0,5.425018616E0,9.465441460E0
4.771079417E0,-1.974394226E-1,7.748936005E0,5.240452423E0,9.356673187E0
4.781057417E0,1.197509766E-2,7.755372620E0,5.057383118E0,9.258675492E0
4.791034417E0,9.669891357E-2,7.816146240E0,4.962630157E0,9.259005930E0
4.801012417E0,2.365081787E-1,7.853867798E0,5.010081482E0,9.318803140E0
4.810990417E0,4.936734009E-1,7.984546051E0,4.903353424E0,9.382940044E0
4.820968417E0,7.262896729E-1,8.133785706E0,4.701722717E0,9.422959360E0
4.830946417E0,1.023721161E0,8.239765320E0,4.539759521E0,9.463147154E0
4.840924417E0,1.453926544E0,8.314909058E0,4.306694183E0,9.476245555E0
4.850902417E0,1.876048737E0,8.424181824E0,4.000431061E0,9.512615147E0
4.860880417E0,2.250120850E0,8.367599487E0,3.763174438E0,9.446758538E0
4.870858417E0,2.451302490E0,8.280031586E0,3.653602295E0,9.376386121E0
4.880835417E0,2.474354553E0,8.275690613E0,3.584745483E0,9.351999025E0
4.890813417E0,2.523153076E0,8.348888397E0,3.551963654E0,9.417360815E0
4.900791417E0,2.570903778E0,8.422235870E0,3.574716339E0,9.503799251E0
4.910769417E0,2.659818878E0,8.464298401E0,3.660338287E0,9.597763295E0
4.920747417E0,2.833457794E0,8.527916107E0,3.834276581E0,9.770133730E0
4.930725417E0,3.085234222E0,8.631500702E0,4.131259003E0,1.005429140E1
4.940703417E0,3.351081390E0,8.778195648E0,4.338727570E0,1.034944550E1
4.950681417E0,3.503464508E0,8.868757324E0,4.493356018E0,1.054131720E1
4.960658417E0,3.577710114E0,8.818312225E0,4.481380920E0,1.051881244E1
4.970636417E0,3.585942993E0,8.707243195E0,4.315376129E0,1.035845270E1
4.980614417E0,3.489842834E0,8.631650391E0,4.135001221E0,1.018737584E1
4.990592417E0,3.330723724E0,8.634644165E0,3.944746857E0,1.006040895E1
5.000570417E0,3.162473602E0,8.677305450E0,3.687731323E0,9.944658439E0
5.010548417E0,2.982547760E0,8.752898254E0,3.462150421E0,9.873971062E0
5.020526417E0,2.817740479E0,8.753497009E0,3.121159515E0,9.711076563E0
5.030504417E0,2.733166351E0,8.840615845E0,2.629581757E0,9.619843400E0
5.040481417E0,2.811004486E0,9.131461029E0,1.976040802E0,9.756539550E0
5.050459417E0,3.213517456E0,9.648485870E0,1.323098602E0,1.025527006E1
5.060437417E0,3.847000122E0,1.024933640E1,8.161029053E-1,1.097790191E1
5.070415417E0,4.478985901E0,1.076501404E1,7.952961731E-1,1.168671630E1
5.080393417E0,4.723427582E0,1.085437820E1,1.591490479E0,1.194408373E1
5.090371417E0,4.138593750E0,1.033795212E1,2.536325684E0,1.142077757E1
5.100349417E0,3.135679321E0,9.633217621E0,3.071313171E0,1.058604417E1
5.110327417E0,2.275268555E0,9.241781616E0,3.094514923E0,1.000816652E1
5.120305417E0,1.817071381E0,9.095386047E0,3.033292236E0,9.758517180E0
5.130282417E0,1.688189392E0,8.971294098E0,3.138822784E0,9.653305635E0
5.140260417E0,1.708097992E0,8.818761292E0,3.399730225E0,9.604494524E0
5.150238417E0,1.680704956E0,8.741521912E0,3.695814514E0,9.638361863E0
5.160216417E0,1.636846161E0,8.741222534E0,3.809278564E0,9.674649344E0
5.170194417E0,1.410367126E0,8.671317902E0,3.816164246E0,9.578308782E0
5.180172417E0,1.168470154E0,8.557255096E0,3.783981171E0,9.429233839E0
5.190150417E0,7.961943054E-1,8.416697388E0,3.655099182E0,9.210562975E0
5.200128417E0,3.514691162E-1,8.375083923E0,3.478167114E0,9.075417772E0
5.210105417E0,7.873626709E-2,8.457263031E0,3.318149872E0,9.085241656E0
5.220083417E0,-9.205856323E-2,8.666976929E0,3.439397736E0,9.324935423E0
5.230061417E0,-2.763253784E-1,8.767867126E0,3.630550232E0,9.493826660E0
5.240039417E0,-3.676354980E-1,8.798403625E0,3.720812531E0,9.559890591E0
5.250017417E0,-4.487667847E-1,8.757837982E0,3.826792145E0,9.567938956E0
5.259995417E0,-5.996530151E-1,8.794960785E0,3.976331177E0,9.670683977E0
5.269973417E0,-8.006849670E-1,8.854087830E0,4.187691650E0,9.827142467E0
5.279951417E0,-9.119036865E-1,8.780590668E0,4.417014771E0,9.871188393E0
5.289928417E0,-1.135388947E0,8.798104248E0,4.522695007E0,9.957435239E0
5.299906417E0,-1.319057007E0,8.934770050E0,4.501738586E0,1.009136649E1
5.309884417E0,-1.277293854E0,8.963061218E0,4.415817261E0,1.007310221E1
5.319862417E0,-1.265767822E0,8.903934174E0,4.365072784E0,9.996803107E0
5.329840417E0,-1.242416382E0,8.832682343E0,4.378694458E0,9.936440056E0
5.339818417E0,-1.163829803E0,8.758287048E0,4.341871033E0,9.844487589E0
5.349796417E0,-1.139879608E0,8.870104523E0,4.320315857E0,9.931928759E0
5.359774417E0,-1.165925446E0,8.991352386E0,4.349954224E0,1.005613751E1
5.369751417E0,-1.214424591E0,8.991352386E0,4.314477997E0,1.004658973E1
5.379729417E0,-1.187779999E0,8.916058960E0,4.148922272E0,9.905578465E0
5.389707417E0,-1.196761322E0,8.908424835E0,3.948638763E0,9.817536289E0
5.399685417E0,-1.132993927E0,8.942553864E0,3.847748566E0,9.800924133E0
5.409663417E0,-1.064436493E0,8.980724487E0,3.868854675E0,9.836385203E0
5.419641542E0,-1.065035248E0,9.064699860E0,3.914060669E0,9.930909049E0
5.429619542E0,-1.152303772E0,9.154064026E0,3.878135376E0,1.000822792E1
5.439597542E0,-1.287772064E0,9.170080719E0,3.776646423E0,1.000058976E1
5.449574542E0,-1.421294403E0,9.163344727E0,3.727698212E0,9.994133195E0
5.459552542E0,-1.574725342E0,9.135502625E0,3.718866577E0,9.988350050E0
5.469530542E0,-1.695823517E0,9.171876984E0,3.672612762E0,1.002433186E1
5.479508542E0,-1.752854919E0,9.270671539E0,3.739373932E0,1.014892943E1
5.489486542E0,-1.743873596E0,9.428293762E0,3.847598877E0,1.033140046E1
5.499464542E0,-1.733994141E0,9.578581238E0,4.061653748E0,1.054765307E1
5.509442542E0,-1.747466125E0,9.707463226E0,4.087100830E0,1.067674451E1
5.519419542E0,-1.812730408E0,9.849068756E0,3.957470398E0,1.076808798E1
5.529397542E0,-1.832788696E0,9.911339264E0,3.905678101E0,1.080962913E1
5.539375542E0,-1.800455933E0,9.845027161E0,3.829636230E0,1.071598409E1
5.549353542E0,-1.703906708E0,9.725425873E0,3.732637939E0,1.055555742E1
5.559331542E0,-1.580563202E0,9.650132446E0,3.564238129E0,1.040802718E1
5.569309542E0,-1.514700165E0,9.631571045E0,3.514990540E0,1.036419972E1
5.579287542E0,-1.542093201E0,9.602830811E0,3.417094116E0,1.030868290E1
5.589265542E0,-1.575473785E0,9.568701782E0,3.289259949E0,1.024018567E1
5.599242542E0,-1.613045654E0,9.532327423E0,3.282074890E0,1.020975994E1
5.609220542E0,-1.643133087E0,9.574090576E0,3.379671936E0,1.028519709E1
5.619198542E0,-1.693727875E0,9.640402679E0,3.496878204E0,1.039395185E1
5.629176542E0,-1.695524139E0,9.621541901E0,3.553310852E0,1.039590730E1
5.639154542E0,-1.656904449E0,9.573491821E0,3.646866302E0,1.037770263E1
5.649132542E0,-1.633553009E0,9.487420807E0,3.632795563E0,1.028964784E1
5.659110542E0,-1.589095459E0,9.399553528E0,3.555855560E0,1.017452405E1
5.669088542E0,-1.450034637E0,9.409582672E0,3.482358398E0,1.013753750E1
5.679065542E0,-1.432221680E0,9.489366760E0,3.516637115E0,1.022086479E1
5.689043542E0,-1.492246857E0,9.487420807E0,3.511398010E0,1.022584325E1
5.699021542E0,-1.607207794E0,9.399104462E0,3.392694855E0,1.012109974E1
5.708999542E0,-1.656455383E0,9.185947723E0,3.313060455E0,9.904637782E0
5.718977542E0,-1.721270599E0,8.963360596E0,3.381318512E0,9.733340666E0
5.728955542E0,-1.734293518E0,8.768765259E0,3.228037262E0,9.503643656E0
5.738933542E0,-1.677711182E0,8.706494751E0,3.095862122E0,9.391598795E0
5.748911542E0,-1.532363434E0,8.640631714E0,3.112776947E0,9.311177929E0
5.758888542E0,-1.362915802E0,8.554411011E0,3.156785431E0,9.219586839E0
5.768866542E0,-1.171763306E0,8.476572876E0,3.080294495E0,9.094697969E0
5.778844542E0,-9.398954773E-1,8.322393494E0,2.958896942E0,8.882607055E0
5.788822542E0,-6.541397095E-1,8.205935669E0,2.690505066E0,8.660490545E0
5.798800542E0,-3.378474426E-1,8.199349365E0,2.608475647E0,8.610901004E0
5.808778542E0,1.901046753E-2,8.242310028E0,2.570903778E0,8.633978355E0
5.818756542E0,3.637435913E-1,8.377029877E0,2.384840698E0,8.717476935E0
5.828734542E0,6.872209167E-1,8.503816223E0,2.274819489E0,8.829607389E0
5.838711542E0,9.877958679E-1,8.511300659E0,2.278861084E0,8.866295023E0
5.848689542E0,1.204994202E0,8.474028168E0,2.495610352E0,8.915673583E0
5.858667542E0,1.264720001E0,8.596922607E0,2.685715027E0,9.095034920E0
5.868645542E0,1.327738953E0,8.935069427E0,2.776875458E0,9.450364739E0
5.878623542E0,1.267264709E0,9.120683441E0,3.158432007E0,9.734912379E0
5.888601542E0,1.137334900E0,9.072932739E0,3.681893463E0,9.857381936E0
5.898579542E0,1.133892059E0,9.113049316E0,4.036356354E0,1.003122882E1
5.908556542E0,1.216071167E0,9.211544495E0,4.345014496E0,1.025721853E1
5.918534542E0,1.387464752E0,9.322014771E0,4.634063416E0,1.050235981E1
5.928512542E0,1.656455383E0,9.429191895E0,4.692891083E0,1.066192904E1
5.938490542E0,1.858684845E0,9.539662170E0,4.601431274E0,1.075328013E1
5.948468542E0,1.904190216E0,9.538913727E0,4.491260376E0,1.071392716E1
5.958446542E0,1.906734924E0,9.439370728E0,4.360881500E0,1.057140697E1
5.968424542E0,2.027533722E0,9.373807068E0,4.189637604E0,1.046576396E1
5.978402542E0,2.261197815E0,9.413175201E0,4.026027832E0,1.048474048E1
5.988379542E0,2.420765991E0,9.452393646E0,3.831731873E0,1.048284421E1
5.998357542E0,2.526146851E0,9.450447693E0,3.689377899E0,1.045485001E1
6.008335542E0,2.587668915E0,9.497749329E0,3.689228210E0,1.051254857E1
6.018313542E0,2.625540161E0,9.505533142E0,3.808530121E0,1.057135389E1
6.028291542E0,2.508782959E0,9.451046448E0,3.855831757E0,1.051112313E1
6.038269542E0,2.210752716E0,9.309590607E0,3.948788452E0,1.035127215E1
6.048247542E0,1.968256989E0,9.111402740E0,4.051474915E0,1.016396303E1
6.058224542E0,1.736987915E0,9.010811920E0,4.118834839E0,1.005866089E1
6.068202542E0,1.459165649E0,8.903934174E0,4.182003479E0,9.944765521E0
6.078180542E0,1.152752838E0,8.762178955E0,4.385580139E0,9.865998799E0
6.088158542E0,8.152047729E-1,8.757688293E0,4.521198120E0,9.889534646E0
6.098136542E0,5.857319641E-1,8.751251678E0,4.493505707E0,9.854901390E0
6.108114542E0,4.917274475E-1,8.693471832E0,4.425397339E0,9.767414703E0
6.118092542E0,4.793032837E-1,8.801397400E0,4.580025787E0,9.933325931E0
6.128069542E0,1.330732727E-1,8.584947510E0,4.457879791E0,9.674281600E0
6.138047542E0,1.992356873E-1,8.322243805E0,4.342918854E0,9.389375963E0
6.148025542E0,2.308200073E-1,8.351582794E0,4.436474304E0,9.459625642E0
6.158003542E0,2.427951050E-1,8.390202484E0,4.559368744E0,9.552083047E0
6.167981542E0,3.209326172E-1,8.423732758E0,4.718338165E0,9.660485824E0
6.177959542E0,3.897894287E-1,8.444090424E0,4.916376343E0,9.778821771E0
6.187937542E0,3.653901672E-1,8.397387543E0,5.296735382E0,9.935040676E0
6.197915542E0,2.538720703E-1,8.466843109E0,5.460045776E0,1.007789577E1
6.207892542E0,1.496887207E-3,8.515491943E0,5.501210175E0,1.013789518E1
6.217870542E0,-2.451901245E-1,8.567433929E0,5.784570923E0,1.034032413E1
6.227848542E0,-2.528242493E-1,8.561296692E0,5.997428284E0,1.045604453E1
6.237826542E0,-1.974394226E-1,8.558153229E0,5.951922913E0,1.042623400E1
6.247804542E0,-2.426454163E-1,8.573271790E0,5.913452911E0,1.041771526E1
6.257782542E0,-3.403921509E-1,8.601113892E0,5.888005829E0,1.042898076E1
6.267760542E0,-3.225791931E-1,8.708440704E0,5.840255127E0,1.049045170E1
6.277738542E0,-2.567161560E-1,8.909023590E0,5.874384155E0,1.067450204E1
6.287715542E0,-3.448828125E-1,9.094188538E0,5.864804077E0,1.082677866E1
6.297693542E0,-3.718267822E-1,9.145681458E0,5.738766174E0,1.080348007E1
6.307671542E0,-3.555107117E-1,9.177864532E0,5.594915314E0,1.075465772E1
6.317649542E0,-3.960763550E-1,9.173373871E0,5.413342896E0,1.065889047E1
6.327627542E0,-4.751119995E-1,9.144334259E0,5.250631256E0,1.055526925E1
6.337605542E0,-4.680766296E-1,9.131011963E0,5.117557983E0,1.047778006E1
6.347583542E0,-4.779560852E-1,9.118587799E0,4.931195526E0,1.037756112E1
6.357560542E0,-4.619393921E-1,9.106912079E0,4.793781281E0,1.030192092E1
6.367538542E0,-4.079017639E-1,9.103319550E0,4.697531433E0,1.025200528E1
6.377516542E0,-3.703298950E-1,8.983867950E0,4.640200653E0,1.011822562E1
6.387494542E0,-3.336561584E-1,8.849746857E0,4.622836761E0,9.989993272E0
6.397472542E0,-3.430865479E-1,8.761280823E0,4.501588898E0,9.856066794E0
6.407450542E0,-3.215313721E-1,8.651558990E0,4.386328583E0,9.705294113E0
6.417429292E0,-3.085084534E-1,8.562793579E0,4.215084686E0,9.549007815E0
6.427406292E0,-2.703378296E-1,8.528215485E0,3.994443512E0,9.421205913E0
6.437384292E0,-1.113684082E-1,8.516390076E0,4.000131683E0,9.409694805E0
6.447362292E0,-2.245330811E-2,8.477021942E0,4.043990479E0,9.392244894E0
6.457340292E0,-8.187973022E-2,8.472830658E0,3.993246002E0,9.367047415E0
6.467318292E0,-1.995350647E-1,8.407716064E0,3.982318726E0,9.305286997E0
6.477296292E0,-3.052153015E-1,8.316106567E0,3.819008331E0,9.156178758E0
6.487274292E0,-3.466790771E-1,8.332722015E0,3.724554749E0,9.133824535E0
6.497251292E0,-4.926255798E-1,8.536448364E0,3.771107941E0,9.345313571E0
6.507229292E0,-5.423222351E-1,8.476572876E0,3.764970703E0,9.290931359E0
6.517207292E0,-5.504054260E-1,8.465196533E0,3.821253662E0,9.304003333E0
6.527185292E0,-4.200265503E-1,8.422235870E0,4.039350128E0,9.350231485E0
6.537163292E0,-2.008822632E-1,8.392896881E0,4.032464447E0,9.313530011E0
6.547141292E0,-1.740879822E-1,8.488398285E0,3.969595184E0,9.372347518E0
6.557119292E0,-3.017724609E-1,8.403225403E0,4.117637329E0,9.362702653E0
6.567096292E0,-4.102967834E-1,8.379125519E0,4.124073944E0,9.348051872E0
6.577074292E0,-5.068460083E-1,8.528664551E0,3.946094055E0,9.410986675E0
6.587052292E0,-4.569996643E-1,8.624165955E0,3.897295532E0,9.474914225E0
6.597030292E0,-4.493655396E-1,8.567733307E0,3.973936157E0,9.455165360E0
6.607008292E0,-5.303471375E-1,8.642128601E0,3.943998413E0,9.514345922E0
6.616986292E0,-5.942642212E-1,8.776549072E0,3.931723938E0,9.635321308E0
6.626964292E0,-6.189628601E-1,8.887917480E0,3.873045959E0,9.714868870E0
6.636942292E0,-5.640270996E-1,8.921447754E0,3.862268372E0,9.737939904E0
6.646919292E0,-3.784130859E-1,8.921298065E0,3.892056427E0,9.740680616E0
6.656897292E0,-2.411485291E-1,9.081315308E0,4.078867950E0,9.958192812E0
6.666875292E0,-2.670446777E-1,9.304650879E0,4.281845856E0,1.024607460E1
6.676853292E0,-4.204756165E-1,8.982820129E0,4.340224457E0,9.985259414E0
6.686831292E0,-1.637594604E-1,8.824299774E0,4.314178619E0,9.823808876E0
6.696809292E0,-9.056167603E-2,8.813522186E0,4.370760956E0,9.838187134E0
6.706787292E0,-1.308279419E-1,8.595725098E0,4.425846405E0,9.669111764E0
6.716764292E0,-9.909393311E-2,8.514893188E0,4.548890533E0,9.654306330E0
6.726742292E0,-1.692979431E-1,8.659043427E0,4.653972015E0,9.831945401E0
6.736720292E0,-2.604583740E-1,8.829688568E0,4.760251007E0,1.003450190E1
6.746698292E0,-3.249742126E-1,8.980125732E0,4.737348633E0,1.015828423E1
6.756676292E0,-3.844006348E-1,9.001980286E0,4.638404388E0,1.013401244E1
6.766654292E0,-3.607498169E-1,8.907975769E0,4.542453918E0,1.000580133E1
6.776632292E0,-2.665956116E-1,8.834777985E0,4.449497223E0,9.895574809E0
6.786609292E0,-1.308279419E-1,8.755892029E0,4.368066559E0,9.785845218E0
6.796587292E0,-4.625381470E-2,8.634494476E0,4.380041656E0,9.682014211E0
6.806565292E0,3.742218018E-2,8.577014008E0,4.587959290E0,9.727072537E0
6.816543292E0,4.026626587E-2,8.719517670E0,4.756359100E0,9.932500272E0
6.826521292E0,-8.128097534E-2,8.677754517E0,4.706812134E0,9.872391327E0
6.836499292E0,-7.319778442E-2,8.634943542E0,4.772375793E0,9.866264674E0
6.846477292E0,-1.935475159E-1,8.706794128E0,4.946613464E0,1.001572311E1
6.856454292E0,-3.808081055E-1,8.640482025E0,4.996759186E0,9.988520751E0
6.866432292E0,-4.186793518E-1,8.650211792E0,4.897665253E0,9.949300547E0
6.876410292E0,-3.751199341E-1,8.645122375E0,4.794529724E0,9.892743357E0
6.886388292E0,-3.303630066E-1,8.619974670E0,4.642595673E0,9.796264472E0
6.896366292E0,-2.658471680E-1,8.632698212E0,4.430486755E0,9.706872103E0
6.906344292E0,-2.089654541E-1,8.609795837E0,4.287983093E0,9.620761401E0
6.916322292E0,-2.606080627E-1,8.572822723E0,4.193080444E0,9.546891097E0
6.926299292E0,-3.103047180E-1,8.580606537E0,4.239483948E0,9.575819636E0
6.936277292E0,-3.757186890E-1,8.615334320E0,4.322860565E0,9.646360632E0
6.946255292E0,-4.478686523E-1,8.648864594E0,4.334386597E0,9.684541923E0
6.956233292E0,-5.334906006E-1,8.676856384E0,4.342619476E0,9.717550764E0
6.966211292E0,-6.224057007E-1,8.708440704E0,4.382586365E0,9.768899201E0
6.976189292E0,-6.054908752E-1,8.570876770E0,4.497846680E0,9.698307716E0
6.986167292E0,-6.212081909E-1,8.590485992E0,4.452191620E0,9.695584532E0
6.996144292E0,-6.641688538E-1,8.764124908E0,4.447251892E0,9.850332739E0
7.006122292E0,-8.059240723E-1,8.967851257E0,4.457131348E0,1.004678504E1
7.016100292E0,-7.906558228E-1,9.129964142E0,4.494852905E0,1.020710951E1
7.026078292E0,-5.611830139E-1,9.210646362E0,4.483925629E0,1.025946011E1
7.036056292E0,-3.695814514E-1,9.185798035E0,4.544848938E0,1.025529755E1
7.046034292E0,-2.752775574E-1,9.180109863E0,4.576133881E0,1.026114984E1
7.056012292E0,-2.510279846E-1,9.215735779E0,4.620292053E0,1.031212392E1
7.065989292E0,-3.034190369E-1,9.285640411E0,4.682712250E0,1.040398842E1
7.075967292E0,-3.576063538E-1,9.402247925E0,4.779710541E0,1.055347247E1
7.085945292E0,-3.606001282E-1,9.518256683E0,4.873415680E0,1.069941228E1
7.095923292E0,-3.393443298E-1,9.610315247E0,4.872367859E0,1.078022645E1
7.105901292E0,-2.987786865E-1,9.748028870E0,4.912933502E0,1.092017633E1
7.115879292E0,-2.339634705E-1,9.965975647E0,4.865482178E0,1.109271501E1
7.125857292E0,-7.125183105E-2,1.013931519E1,4.774321747E0,1.120736086E1
7.135834292E0,-6.571334839E-2,1.016670822E1,4.936434631E0,1.130197599E1
7.145812292E0,-1.624122620E-1,1.018302429E1,4.955594788E0,1.132600023E1
7.155790292E0,-2.549198914E-1,1.028750702E1,4.773273926E0,1.134380575E1
7.165768292E0,-2.823129272E-1,1.041638901E1,4.689148865E0,1.142667833E1
7.175746292E0,-2.203417969E-1,1.052925430E1,4.593647461E0,1.148979302E1
7.185724292E0,4.640350342E-2,1.071441925E1,4.455634460E0,1.160403428E1
7.195702292E0,1.865121460E-1,1.090497299E1,4.436474304E0,1.177435888E1
7.205679292E0,2.192939758E-1,1.096035782E1,4.328698425E0,1.178622770E1
7.215657292E0,2.507286072E-1,1.106454117E1,4.268822937E0,1.186211555E1
7.225635292E0,1.212478638E-1,1.130104935E1,4.295168152E0,1.209036339E1
7.235613292E0,-1.387614441E-1,1.147483795E1,4.287234650E0,1.225036904E1
7.245591292E0,-2.760260010E-1,1.151914581E1,4.213587799E0,1.226870950E1
7.255569292E0,-2.700384521E-1,1.142873383E1,4.026776276E0,1.212038798E1
7.265546292E0,-2.157014465E-1,1.126198059E1,3.679199066E0,1.184969365E1
7.275524292E0,-1.353186035E-1,1.105196732E1,3.189417572E0,1.150376795E1
7.285502292E0,-1.104702759E-1,1.085303101E1,2.917133789E0,1.123877908E1
7.295480292E0,-3.041674805E-1,1.064451462E1,2.897374878E0,1.103598616E1
7.305458292E0,-5.857319641E-1,1.050650162E1,2.881208496E0,1.091013385E1
7.315436292E0,-8.595126343E-1,1.043554916E1,2.974763947E0,1.088525006E1
7.325414292E0,-1.001716919E0,1.040306671E1,3.216660919E0,1.093499617E1
7.335391292E0,-8.755293274E-1,1.058493851E1,3.530109100E0,1.119236995E1
7.345369292E0,-4.755610657E-1,1.089883575E1,3.857478333E0,1.157112433E1
7.355347292E0,-1.824705505E-1,1.110600494E1,4.066892853E0,1.182862032E1
7.365325292E0,-9.385482788E-2,1.113848740E1,4.249363403E0,1.192190419E1
7.375303292E0,-9.714797974E-2,1.099373840E1,4.256548462E0,1.178939891E1
7.385281292E0,-4.760101318E-2,1.068343369E1,4.123325500E0,1.145163020E1
7.395259292E0,5.209167480E-2,1.032717453E1,3.924239502E0,1.104775556E1
7.405236292E0,1.460961914E-1,9.964478760E0,3.621419220E0,1.060315322E1
7.415214292E0,1.378633118E-1,9.661209412E0,3.336711273E0,1.022211405E1
7.425192417E0,-1.278341675E-1,9.423354034E0,3.115621033E0,9.925877153E0
7.435170417E0,-5.173242188E-1,9.257947998E0,2.892135773E0,9.712964265E0
7.445148417E0,-8.589138794E-1,9.069789276E0,2.506837006E0,9.448970438E0
7.455126417E0,-1.044827271E0,8.880133667E0,2.099683685E0,9.184612651E0
7.465104417E0,-1.193617859E0,8.736881561E0,1.725012817E0,8.985181814E0
7.475081417E0,-1.328487396E0,8.587941284E0,1.482816467E0,8.815688228E0
7.485059417E0,-1.497036896E0,8.418343964E0,1.364712067E0,8.658641555E0
7.495037417E0,-1.651665344E0,8.340954895E0,1.118174744E0,8.576120436E0
7.505015417E0,-1.536554718E0,8.247848511E0,9.187893677E-1,8.439915838E0
7.514993417E0,-1.215173035E0,8.051905975E0,9.725276184E-1,8.200953927E0
7.524971417E0,-8.928932190E-1,7.926915894E0,1.158890076E0,8.060786568E0
7.534948417E0,-6.848258972E-1,7.840695190E0,1.199904785E0,7.961485984E0
7.544926417E0,-4.831951904E-1,7.761509857E0,1.038690033E0,7.845596844E0
7.554904417E0,-3.317102051E-1,7.759563904E0,1.189875641E0,7.857268462E0
7.564882417E0,-2.615061951E-1,7.817493439E0,1.602118378E0,7.984257790E0
7.574860417E0,-8.771759033E-2,7.930508423E0,1.867366791E0,8.147865791E0
7.584838417E0,1.005908203E-1,8.138426056E0,2.039808197E0,8.390763652E0
7.594816417E0,1.306782532E-1,8.434510345E0,2.090552673E0,8.690710676E0
7.604793417E0,8.023315430E-2,8.609945526E0,2.179467773E0,8.881873625E0
7.614771417E0,-3.233276367E-2,8.569379883E0,2.230811005E0,8.855045721E0
7.624749417E0,-2.418969727E-1,8.517587585E0,1.934726715E0,8.737904777E0
7.634727417E0,-3.839515686E-1,8.518485718E0,1.470242615E0,8.652955049E0
7.644705417E0,-4.077520752E-1,8.548722839E0,1.118623810E0,8.631236480E0
7.654683417E0,-4.700225830E-1,8.624764709E0,9.020242310E-1,8.684534256E0
7.664661417E0,-5.782475281E-1,8.603658600E0,6.536906433E-1,8.647810299E0
7.674638417E0,-6.261479187E-1,8.479566650E0,4.002676392E-1,8.512069430E0
7.684616417E0,-6.453080750E-1,8.372539215E0,2.025288391E-1,8.399812697E0
7.694594417E0,-6.327342224E-1,8.269403687E0,5.119354248E-2,8.293733219E0
7.704572417E0,-6.851252747E-1,8.127349091E0,-1.269360352E-1,8.157163272E0
7.714550417E0,-8.074209595E-1,8.019423523E0,-2.390528870E-1,8.063512171E0
7.724528417E0,-9.490264893E-1,7.920778656E0,-2.510279846E-1,7.981378380E0
7.734505417E0,-9.981243896E-1,7.844736786E0,-2.954855347E-1,7.913498546E0
7.744483417E0,-8.967851257E-1,7.684120789E0,-4.993615723E-1,7.752373690E0
7.754461417E0,-7.381150818E-1,7.545658722E0,-6.180647278E-1,7.606824793E0
7.764439417E0,-6.789880371E-1,7.372169495E0,-4.195774841E-1,7.415251383E0
7.774417417E0,-4.598437500E-1,7.297774200E0,-1.740879822E-1,7.314319598E0
7.784395417E0,-2.071691895E-1,7.304210815E0,-7.634124756E-2,7.307546968E0
7.794373417E0,-8.023315430E-2,7.270081787E0,-1.886077881E-2,7.270548967E0
7.804350417E0,-3.592529297E-2,7.282206573E0,4.236190796E-2,7.282418399E0
7.814328417E0,-1.377136230E-1,7.328759766E0,6.990463257E-2,7.330386852E0
7.824306417E0,-2.562670898E-1,7.288643188E0,1.496887207E-3,7.293147098E0
7.834284417E0,-3.421884155E-1,7.194638672E0,-6.122268677E-2,7.203031775E0
7.844262417E0,-3.162922668E-1,7.170239410E0,-6.945556641E-2,7.177548194E0
7.854240417E0,-2.808160400E-1,7.289391632E0,-2.185455322E-2,7.294831433E0
7.864218417E0,-2.782713318E-1,7.516319733E0,4.745132446E-2,7.521618768E0
7.874195417E0,-3.189866638E-1,7.744595032E0,6.391708374E-2,7.751425036E0
7.884173417E0,-4.273612976E-1,7.888894958E0,3.128494263E-2,7.900524039E0
7.894151417E0,-5.891748047E-1,7.904911652E0,2.131567383E-1,7.929703082E0
7.904129417E0,-7.451504517E-1,7.971223755E0,4.984634399E-1,8.021478863E0
7.914107417E0,-7.846682739E-1,8.095764771E0,5.040019226E-1,8.149302391E0
7.924085417E0,-9.943821716E-1,8.163424072E0,2.576142883E-1,8.227797616E0
7.934062417E0,-1.209933929E0,8.148006134E0,3.308120728E-2,8.237416976E0
7.944040417E0,-1.273701324E0,8.058492279E0,-9.475296021E-2,8.159080279E0
7.954018417E0,-1.083297272E0,7.930059357E0,-1.169068909E-1,8.004563798E0
7.963996417E0,-7.343728638E-1,7.928412781E0,-2.769241333E-2,7.962399111E0
7.973974417E0,-4.095483398E-1,8.129893799E0,5.852828979E-2,8.140413293E0
7.983952417E0,-2.438429260E-1,8.450976105E0,3.173400879E-1,8.460446869E0
7.993930417E0,-9.505233765E-2,9.046288147E0,7.795788574E-1,9.080314278E0
8.003907417E0,-4.318519592E-1,9.134454803E0,1.024170227E0,9.201830542E0
8.013885417E0,-9.382489014E-1,9.210047607E0,1.376687164E0,9.359516840E0
8.023863417E0,-9.168434143E-1,9.428293762E0,1.824256439E0,9.646825212E0
8.033841417E0,-9.982740784E-1,9.694589996E0,2.285148010E0,1.001017122E1
8.043819417E0,-1.055604858E0,1.015608032E1,2.332000580E0,1.047370497E1
8.053797417E0,-6.912625122E-1,1.051653076E1,2.404300232E0,1.080999180E1
8.063774417E0,-3.213816833E-1,1.067160828E1,3.019371185E0,1.109518417E1
8.073752417E0,-2.287243652E-1,1.081935104E1,3.155737610E0,1.127250423E1
8.083730417E0,-2.215393066E-1,1.082788330E1,3.068918152E0,1.125657119E1
8.093708417E0,-2.996768188E-1,1.090048233E1,3.149899750E0,1.135042685E1
8.103686417E0,-4.108955383E-1,1.101649109E1,3.155438232E0,1.146685229E1
8.113664417E0,-3.248245239E-1,1.096649506E1,3.268453217E0,1.144780814E1
8.123642417E0,-1.594184875E-1,1.080049026E1,3.284020844E0,1.128985372E1
8.133619417E0,-9.430389404E-2,1.075588303E1,2.996468811E0,1.116587382E1
8.143597417E0,-2.059716797E-1,1.076800781E1,2.780018921E0,1.112299069E1
8.153575417E0,-5.345384216E-1,1.077534256E1,2.792143707E0,1.114404797E1
8.163553417E0,-8.888516235E-1,1.087099365E1,2.584974518E0,1.120940023E1
8.173531417E0,-1.232686615E0,1.103071152E1,2.345472565E0,1.134448564E1
8.183509417E0,-1.761686554E0,1.111034592E1,2.181114349E0,1.145864677E1
8.193486417E0,-2.345023499E0,1.127859604E1,1.751058655E0,1.165212728E1
8.203464417E0,-2.717898102E0,1.148052612E1,1.443448334E0,1.188583162E1
8.213442417E0,-2.732268219E0,1.159848083E1,1.943708038E0,1.207344393E1
8.223420417E0,-2.528392181E0,1.152378616E1,2.856809235E0,1.213885388E1
8.233398417E0,-1.718276825E0,1.144549896E1,2.856060791E0,1.192094816E1
8.243376417E0,-6.809339905E-1,1.109867020E1,2.742746429E0,1.145280792E1
8.253354417E0,2.037263489E-1,1.063822769E1,2.737507324E0,1.098668918E1
8.263331417E0,9.455836487E-1,1.030741562E1,2.656376038E0,1.068612553E1
8.273309417E0,1.392554169E0,9.935588837E0,2.468367004E0,1.033189084E1
8.283287417E0,1.462758179E0,9.760902100E0,2.324366455E0,1.013989895E1
8.293265417E0,3.517385559E0,1.498818192E1,2.924468536E0,1.567067690E1
8.303243417E0,3.264561310E0,1.240230927E1,3.465443573E0,1.328472562E1
8.313221417E0,-9.705816650E-1,3.163820801E0,3.393592987E0,4.740070062E0
8.323198417E0,8.491841125E-1,1.305525146E1,2.424358521E0,1.330557096E1
8.333176417E0,-8.113128662E-2,7.969427490E0,2.940036163E0,8.494831926E0
8.343154417E0,3.397933960E-1,1.007929001E1,3.732637939E0,1.075361021E1
8.353132417E0,-1.564995575E0,1.046369064E1,3.228785706E0,1.106178513E1
8.363110417E0,-8.586145020E-1,7.821834412E0,4.714146881E0,9.172867231E0
8.373088417E0,-2.812651062E-1,9.618398438E0,4.858746185E0,1.077961563E1
8.383066417E0,8.120613098E-1,9.841584320E0,5.372926941E0,1.124208919E1
8.393043417E0,3.975732422E-1,9.183552704E0,5.235512695E0,1.057857731E1
8.403021417E0,-1.510359192E-1,9.252259827E0,4.583768005E0,1.032657024E1
8.412999417E0,-8.711883545E-2,8.978030090E0,4.259392548E0,9.937556987E0
8.422976458E0,4.104464722E-1,8.918304291E0,4.795128479E0,1.013399600E1
8.432954458E0,4.230203247E-1,9.162296906E0,5.673052826E0,1.078471878E1
8.442932458E0,-4.610412598E-1,9.202862549E0,5.534141693E0,1.074857955E1
8.452909458E0,2.118095398E-1,9.413025513E0,5.689069519E0,1.100070109E1
8.462887458E0,1.380130005E-1,9.352102203E0,5.167104950E0,1.068549656E1
8.472865458E0,4.460723877E-2,9.276659088E0,4.639751587E0,1.037235212E1
8.482843458E0,2.095642090E-2,9.005722504E0,4.200564880E0,9.937214011E0
8.492821458E0,2.306703186E-1,8.980724487E0,3.899690552E0,9.793579913E0
8.502799458E0,-2.260299683E-2,8.596772919E0,3.289409637E0,9.204630969E0
8.512776458E0,1.067280579E-1,8.472082214E0,3.499422913E0,9.166980345E0
8.522754458E0,-1.621128845E-1,8.268804932E0,3.302731934E0,8.905473250E0
8.532732458E0,4.460723877E-2,8.429869995E0,3.591182098E0,9.163039169E0
8.542710458E0,4.790039062E-3,8.463849335E0,3.580554199E0,9.190056413E0
8.552688458E0,-2.210902405E-1,8.526269531E0,3.705244904E0,9.299193127E0
8.562666458E0,4.161346436E-2,8.615034943E0,3.940555573E0,9.473570444E0
8.572644458E0,-2.544708252E-1,8.605155487E0,3.795656891E0,9.408531638E0
8.582621458E0,9.654922485E-2,8.804391174E0,4.133504333E0,9.726894868E0
8.592599458E0,-1.380130005E-1,8.652756500E0,4.225562897E0,9.630401053E0
8.602577458E0,1.255888367E-1,8.743916931E0,4.841981049E0,9.995830947E0
8.612555458E0,-1.442999268E-1,8.794062653E0,5.375920715E0,1.030809798E1
8.622533458E0,9.984237671E-2,9.024134216E0,5.596412201E0,1.061907700E1
8.632511458E0,-2.071691895E-1,8.856482849E0,5.342540131E0,1.034518934E1
8.642488458E0,2.327659607E-1,8.992998962E0,5.664520569E0,1.063085150E1
8.652466458E0,-1.890568542E-1,8.724906464E0,5.369334412E0,1.024643779E1
8.662444458E0,3.906875610E-2,8.869356079E0,5.258714447E0,1.031121144E1
8.672422458E0,7.993377686E-2,8.730295258E0,4.772824860E0,9.950090544E0
8.682400458E0,2.182461548E-1,8.621770935E0,4.426295471E0,9.694052663E0
8.692378458E0,2.968327332E-1,8.491691437E0,4.143683167E0,9.453414373E0
8.702356458E0,2.845582581E-1,8.371491394E0,3.976331177E0,9.272219324E0
8.712333458E0,1.877096558E-1,8.323141937E0,4.016148376E0,9.243342166E0
8.722311458E0,2.395019531E-3,8.453670502E0,4.129762115E0,9.408479464E0
8.732289458E0,-1.769320679E-1,8.367300110E0,4.279899902E0,9.400029748E0
8.742267458E0,-2.393522644E-1,8.418793030E0,4.222718811E0,9.421503051E0
8.752245458E0,-1.676513672E-2,8.249944153E0,4.171076202E0,9.244443535E0
8.762223458E0,-1.571731567E-2,8.123307495E0,4.313280487E0,9.197432264E0
8.772200458E0,2.406994629E-1,8.206534424E0,4.178710327E0,9.212315859E0
8.782178458E0,1.709445190E-1,8.425229645E0,4.058659973E0,9.353418486E0
8.792156458E0,2.395019531E-1,8.337512054E0,4.617148590E0,9.533600031E0
8.802134458E0,7.081773376E-1,8.345445557E0,4.290527802E0,9.410451928E0
8.812112458E0,-2.005828857E-1,8.414002991E0,3.874243469E0,9.265281554E0
8.822090458E0,-8.631051636E-1,8.062683563E0,3.807182922E0,8.958038768E0
8.832067458E0,-8.416996765E-1,7.500602417E0,3.339106293E0,8.253309990E0
8.842045458E0,-8.506809998E-1,6.872209167E0,2.588716736E0,7.392724217E0
8.852023458E0,-2.866539001E-1,5.901926880E0,2.371967468E0,6.367192554E0
8.862001458E0,2.438429260E-1,5.305866394E0,2.468217316E0,5.856942400E0
8.871979458E0,5.572911072E-1,5.218897247E0,2.809956665E0,5.953429122E0
8.881957458E0,6.029461670E-1,5.141208801E0,3.506009216E0,6.252013487E0
8.891934458E0,6.789880371E-1,4.947960663E0,4.352049866E0,6.624475640E0
8.901912458E0,1.044228516E0,4.578977966E0,5.200186157E0,7.007095581E0
8.911890458E0,1.659299469E0,4.527784424E0,6.272556152E0,7.911957229E0
8.921868458E0,2.401156769E0,5.159171448E0,7.144642639E0,9.133921518E0
8.931846458E0,2.795436859E0,5.779481506E0,8.321495361E0,1.051019309E1
8.941824458E0,2.885699158E0,5.640720062E0,9.398056641E0,1.133439240E1
8.951802458E0,3.366798706E0,5.560486908E0,1.103864502E1,1.281038766E1
8.961779458E0,3.204985199E0,5.206772461E0,1.315958450E1,1.451058489E1
8.971757458E0,2.580483856E0,4.527934113E0,1.417761749E1,1.510516210E1
8.981735458E0,1.912423096E0,3.594325562E0,1.352572311E1,1.412521590E1
8.991713458E0,1.600471802E0,3.105741577E0,1.234752319E1,1.283232129E1
9.001691458E0,1.508712616E0,3.091670837E0,1.144504990E1,1.195089158E1
9.011669458E0,1.376537476E0,3.299438782E0,1.137170242E1,1.192043488E1
9.021646458E0,1.198557587E0,3.732787628E0,1.233105743E1,1.293928983E1
9.031624458E0,1.133442993E0,3.913012848E0,1.229094086E1,1.294849759E1
9.041602458E0,8.792715454E-1,3.600762177E0,1.192749664E1,1.249014743E1
9.051580458E0,6.164181519E-1,3.480711823E0,1.172122559E1,1.224264903E1
9.061558458E0,4.522096252E-1,3.398981781E0,1.149115402E1,1.199183854E1
9.071536458E0,2.116598511E-1,3.323538666E0,1.126108246E1,1.174319749E1
9.081513458E0,2.589614868E-2,3.676804047E0,1.185250259E1,1.240972910E1
9.091491458E0,-4.438270569E-1,3.810176697E0,1.298893936E1,1.354352150E1
9.101469458E0,-7.695497131E-1,3.671864319E0,1.372840164E1,1.423178857E1
9.111447458E0,-6.725514221E-1,3.355721741E0,1.310779221E1,1.354722888E1
9.121425458E0,3.592529297E-3,3.270848236E0,1.219678665E1,1.262774983E1
9.131403458E0,-2.210902405E-1,2.924618225E0,1.218720657E1,1.253516162E1
9.141380458E0,-7.318281555E-1,2.933000793E0,1.274195297E1,1.309562643E1
9.151358458E0,3.115022278E-1,3.681444397E0,1.230740662E1,1.284999316E1
9.161336458E0,6.697073364E-1,4.320764923E0,1.194261520E1,1.271784476E1
9.171314458E0,1.218466187E-1,4.541855164E0,1.167527115E1,1.252817829E1
9.181292458E0,3.980223083E-1,4.471800842E0,1.116273697E1,1.203171314E1
9.191270458E0,5.339396667E-1,4.841232605E0,9.878258057E0,1.101374627E1
9.201247458E0,1.803749084E-1,5.273982697E0,8.466992798E0,9.976842969E0
9.211225458E0,-1.029858398E-1,5.238506470E0,6.842121735E0,8.617841142E0
9.221203458E0,-9.190887451E-2,5.293142853E0,5.275030518E0,7.473403205E0
9.231181458E0,-6.152206421E-2,5.737568665E0,4.034260712E0,7.014181252E0
9.241159458E0,9.261241150E-1,7.915689240E0,2.746189270E0,8.429555001E0
9.251137458E0,-7.801776123E-1,4.247118073E0,1.999541931E0,4.758661257E0
9.261114458E0,1.212478638E-2,6.530469818E0,2.045795746E0,6.843424822E0
9.271092458E0,6.438111877E-1,7.357949066E0,2.096839600E0,7.677932248E0
9.281070458E0,9.961784363E-1,7.627538452E0,1.771266632E0,7.893611328E0
9.291048458E0,1.149908752E0,8.017926636E0,1.209035797E0,8.189701169E0
9.301026458E0,9.277706909E-1,8.323740692E0,6.730004883E-1,8.402282263E0
9.311004458E0,4.222718811E-1,8.670419769E0,7.818241882E-1,8.715832810E0
9.320981458E0,5.445675659E-1,8.623567200E0,6.565347290E-1,8.665650751E0
9.330959458E0,9.398954773E-1,8.528664551E0,5.792953491E-2,8.580494063E0
9.340937458E0,1.197210388E0,8.603508911E0,-4.388873291E-1,8.697488165E0
9.350915458E0,1.432071991E0,8.686735840E0,-9.409432983E-1,8.854128078E0
9.360893458E0,1.393152924E0,8.810079346E0,-1.446442108E0,9.036070380E0
9.370871458E0,1.184337158E0,8.880283356E0,-1.905836792E0,9.159383214E0
9.380848458E0,1.191971283E0,8.891510010E0,-2.483635254E0,9.308500946E0
9.390826458E0,1.050365753E0,8.910819855E0,-3.057691498E0,9.479211781E0
9.400804458E0,8.063731384E-1,8.655750275E0,-3.143313446E0,9.244061330E0
9.410782458E0,4.519102478E-1,8.083340607E0,-2.189945984E0,8.386923253E0
9.420760917E0,6.011499023E-1,7.862699432E0,-8.126600647E-1,7.927410671E0
9.430738917E0,1.066382446E0,8.009843445E0,1.927990723E-1,8.082817270E0
9.440715917E0,1.769170990E0,8.011639709E0,8.547225952E-2,8.205098557E0
9.450693917E0,1.519789581E0,7.092700653E0,5.709127808E-1,7.276132512E0
9.460671917E0,1.823807373E0,7.181915131E0,2.780617676E0,7.914418042E0
9.470649917E0,2.805765381E0,8.412057037E0,3.848946075E0,9.666923444E0
9.480627917E0,2.986439667E0,9.385183411E0,3.993395691E0,1.062768548E1
9.490605917E0,2.302511902E0,9.228908386E0,4.068988495E0,1.034557772E1
9.500582917E0,1.044527893E0,8.036787415E0,5.232369232E0,9.646692607E0
9.510560917E0,-6.035449219E-1,7.237000580E0,7.189399567E0,1.021889965E1
9.520538917E0,-1.231339417E0,7.110962677E0,9.707313538E0,1.209602923E1
9.530516917E0,-1.028960266E0,6.539600830E0,1.221534805E1,1.389387873E1
9.540494917E0,-1.619033203E0,5.543871460E0,1.252445526E1,1.379194543E1
9.550472917E0,-2.170785828E0,5.805078278E0,1.187809937E1,1.339777927E1
9.560450917E0,-1.159488831E0,6.695426788E0,1.101469482E1,1.294204993E1
9.570427917E0,-8.262817383E-2,6.691983948E0,1.019874161E1,1.219851659E1
9.580405917E0,-6.245013428E-1,5.587580566E0,8.849447479E0,1.048445417E1
9.590383917E0,-2.301613770E0,5.218897247E0,7.936196594E0,9.773307056E0
9.600361917E0,-3.715274048E0,5.295837250E0,7.147935791E0,9.640650367E0
9.610339917E0,-4.489015045E0,5.374423828E0,6.752308502E0,9.727762213E0
9.620316917E0,-4.661157074E0,5.292394409E0,6.989116058E0,9.928925779E0
9.630294917E0,-4.645439758E0,4.902604980E0,7.568710785E0,1.014401445E1
9.640272917E0,-4.805606689E0,4.449347534E0,7.555687866E0,9.998948358E0
9.650250917E0,-5.388644257E0,4.748874664E0,6.817423096E0,9.902855910E0
9.660228917E0,-6.161337433E0,5.234165497E0,5.703888702E0,9.894084785E0
9.670206917E0,-6.830595703E0,5.644162903E0,4.628674622E0,9.996911587E0
9.680183917E0,-7.500003662E0,6.182593231E0,4.077670441E0,1.054048909E1
9.690161917E0,-7.244934082E0,6.451134796E0,4.255350952E0,1.059312144E1
9.700139917E0,-6.436914368E0,6.118676147E0,4.769531708E0,1.008069924E1
9.710117917E0,-6.044280853E0,5.689518585E0,4.460274811E0,9.423269292E0
9.720095917E0,-5.326224060E0,5.244194641E0,3.966451721E0,8.461854373E0
9.730073917E0,-4.702471161E0,4.832400970E0,3.949536896E0,7.814357034E0
9.740050917E0,-4.205354919E0,4.498595123E0,4.082909546E0,7.388675013E0
9.750028917E0,-3.642974396E0,4.218228149E0,4.043541412E0,6.885850588E0
9.760006917E0,-2.926414490E0,3.886967010E0,3.895349579E0,6.232668983E0
9.769984917E0,-2.245330811E0,3.628753967E0,4.381837921E0,6.116360795E0
9.779962917E0,-1.084494781E0,3.462599487E0,5.779481506E0,6.824084600E0
9.789940917E0,1.752854919E-1,3.085832977E0,7.031028900E0,7.680394362E0
9.799917917E0,3.561094666E-1,2.631078644E0,7.665858765E0,8.112630855E0
9.809895917E0,-3.707789612E-1,2.117047577E0,8.535849609E0,8.802277889E0
9.819873917E0,1.272354126E-2,2.038910065E0,9.436826019E0,9.654584479E0
9.829851917E0,5.354365540E-1,1.843865662E0,9.899364166E0,1.008384568E1
9.839829917E0,-1.407073975E-2,1.047371979E0,1.067265610E1,1.072393464E1
9.849807917E0,-3.501219177E-1,3.640429688E-1,1.171613617E1,1.172701835E1
9.859784917E0,-5.493576050E-1,2.874023438E-2,1.252954468E1,1.254161511E1
9.869762917E0,-8.175997925E-1,3.321592712E-1,1.265184036E1,1.268258112E1
9.879740917E0,-1.285377045E0,5.248086548E-1,1.277204041E1,1.284728121E1
9.889718917E0,-1.933978271E0,3.992198181E-1,1.203946381E1,1.220034168E1
9.899696917E0,-9.285191345E-1,2.757266235E-1,1.189052353E1,1.192990875E1
9.909674917E0,9.520202637E-1,5.083428955E-1,1.285631516E1,1.290153458E1
9.919651917E0,2.977158966E0,1.968706055E0,1.199844910E1,1.251806933E1
9.929629917E0,3.395389252E0,2.919528809E0,9.312285004E0,1.033300385E1
9.939607917E0,2.734064484E0,2.799179077E0,8.541687469E0,9.395261408E0
9.949585917E0,2.188149719E0,2.592009888E0,8.093220062E0,8.775347596E0
9.959563917E0,1.845961304E0,2.988235931E0,7.403155060E0,8.194133997E0
9.969541917E0,2.051932983E0,3.517684937E0,7.434739380E0,8.477021053E0
9.979518917E0,3.129093018E0,3.572021942E0,7.936346283E0,9.248575901E0
9.989496917E0,3.905827789E0,3.200195160E0,8.090675354E0,9.537073318E0
9.999474917E0,2.834804993E0,2.914289703E0,9.106762390E0,9.973080018E0
1.000945292E1,2.735261993E0,3.421435089E0,1.016835480E1,1.107173498E1
1.001943092E1,3.292553101E0,3.600013733E0,9.257498932E0,1.046433425E1
1.002940892E1,2.781066742E0,3.122656403E0,8.896749115E0,9.830435395E0
1.003938592E1,3.155887299E0,3.277284851E0,9.324260101E0,1.037506853E1
1.004936392E1,3.662733307E0,3.983965302E0,9.424401855E0,1.086770193E1
1.005934192E1,4.078119507E0,4.247567139E0,8.650660858E0,1.046455057E1
1.006931992E1,4.282294922E0,4.030817871E0,7.445816345E0,9.488188634E0
1.007929792E1,4.421804810E0,4.428840179E0,7.389234009E0,9.683375566E0
1.008927592E1,5.172344055E0,6.254294128E0,8.238567810E0,1.156474546E1
1.009925292E1,5.276228027E0,6.835535431E0,9.581874390E0,1.289866054E1
1.010923092E1,4.857249298E0,5.400020599E0,1.134625534E1,1.347184484E1
1.011920892E1,4.543950806E0,3.526366882E0,1.176747940E1,1.309795113E1
1.012918692E1,4.756059723E0,3.042572937E0,1.044273422E1,1.187131215E1
1.013916492E1,5.249433746E0,3.209026794E0,9.135802002E0,1.101441264E1
1.014914292E1,5.520370331E0,3.401676178E0,8.205037537E0,1.045794102E1
1.015911992E1,5.545218658E0,3.492836609E0,7.199728088E0,9.735781535E0
1.016909792E1,5.325625305E0,3.495081940E0,6.301446075E0,8.960251408E0
1.017907592E1,4.904850311E0,3.473676453E0,5.761818237E0,8.326015498E0
1.018905392E1,4.642895050E0,3.512296143E0,5.869294739E0,8.266880873E0
1.019903192E1,4.395309906E0,3.560046844E0,6.240822144E0,8.422620954E0
1.020900992E1,4.227508850E0,3.713627472E0,6.110742645E0,8.306866783E0
1.021898692E1,4.036506042E0,3.842509460E0,5.703289948E0,7.974068987E0
1.022896492E1,3.941304016E0,3.860023041E0,5.669609985E0,7.910634147E0
1.023894292E1,3.896247711E0,3.791764984E0,6.353986816E0,8.362498214E0
1.024892092E1,4.048181763E0,3.739523621E0,7.344626770E0,9.182339293E0
1.025889892E1,4.262386322E0,3.542682953E0,7.978259125E0,9.714481887E0
1.026887592E1,4.597239990E0,3.407663727E0,8.009993134E0,9.844124014E0
1.027885392E1,5.136718140E0,3.626508636E0,8.145012360E0,1.028973588E1
1.028883192E1,5.785918121E0,3.873345337E0,8.632997589E0,1.109091069E1
1.029880992E1,6.151457977E0,3.699856110E0,9.563312988E0,1.195768898E1
1.030878792E1,6.344257050E0,3.537144470E0,1.004007156E1,1.239209528E1
1.031876592E1,6.578220520E0,3.474574585E0,9.656718750E0,1.219007263E1
1.032874292E1,6.766229553E0,3.366199951E0,9.366472321E0,1.203511397E1
1.033872092E1,6.852001190E0,3.332969055E0,9.204359436E0,1.194900982E1
1.034869892E1,6.828350372E0,3.296894073E0,8.744216309E0,1.157398800E1
1.035867692E1,6.654262390E0,3.208577728E0,8.209677887E0,1.104413826E1
1.036865492E1,6.443350983E0,3.139571228E0,8.125552826E0,1.083504906E1
1.037863292E1,6.656058655E0,3.376977539E0,8.383466492E0,1.122450910E1
1.038860992E1,7.049290924E0,3.713627472E0,8.460705872E0,1.162183614E1
1.039858792E1,7.250173187E0,3.937711487E0,8.230783997E0,1.165402884E1
1.040856592E1,7.244634705E0,4.090992737E0,7.952512665E0,1.150927501E1
1.041854392E1,7.171586609E0,4.285139008E0,7.693551178E0,1.135714755E1
1.042852158E1,7.161407776E0,4.642595673E0,7.122788086E0,1.111636478E1
1.043849958E1,6.996750183E0,4.862937469E0,6.682254181E0,1.082844379E1
1.044847658E1,6.706354065E0,5.040019226E0,6.034700775E0,1.033414690E1
1.045845458E1,6.364315338E0,5.085973663E0,5.476511536E0,9.816507344E0
1.046843258E1,6.215973816E0,5.093009033E0,5.743107147E0,9.877264358E0
1.047841058E1,6.055956573E0,5.168751526E0,5.787564697E0,9.843094406E0
1.048838858E1,5.525908813E0,5.219346313E0,5.615422668E0,9.450408240E0
1.049836558E1,4.743036804E0,5.387147369E0,6.341113586E0,9.577446237E0
1.050834358E1,3.632645874E0,5.546715546E0,6.167324982E0,9.055278396E0
1.051832158E1,2.367476807E0,5.492827606E0,4.852908325E0,7.702390587E0
1.052829958E1,1.275347900E0,5.641767883E0,3.820804596E0,6.932142878E0
1.053827758E1,5.004093933E-1,6.051465912E0,3.359613647E0,6.939571536E0
1.054825558E1,-3.053649902E-1,6.540349274E0,3.400478668E0,7.377850064E0
1.055823258E1,-1.320553894E0,7.121740265E0,3.513493652E0,8.050322020E0
1.056821058E1,-2.576292572E0,7.651189270E0,3.487298126E0,8.794272505E0
1.057818858E1,-3.482358398E0,8.122559052E0,3.283721466E0,9.427916643E0
1.058816658E1,-3.562142487E0,8.096064148E0,3.403322754E0,9.477221088E0
1.059814458E1,-3.344345398E0,8.433312836E0,3.858077087E0,9.858507511E0
1.060812258E1,-2.954705658E0,8.180787964E0,4.786895599E0,9.928239860E0
1.061809958E1,-2.026785278E0,7.201224976E0,5.983956299E0,9.579834691E0
1.062807758E1,-1.003363495E0,7.029532013E0,6.432872772E0,9.581383550E0
1.063805558E1,-2.269281006E-1,7.024891663E0,6.643933868E0,9.671734926E0
1.064803358E1,6.845265198E-1,6.785838776E0,7.196434937E0,9.914880748E0
1.065801158E1,1.682650909E0,6.697971497E0,7.847431183E0,1.045353110E1
1.066798958E1,2.068099365E0,6.461014252E0,8.639284515E0,1.098448802E1
1.067796658E1,2.483485565E0,6.054908752E0,9.595046997E0,1.161441120E1
1.068794458E1,2.974464569E0,6.115682373E0,9.846074982E0,1.196637802E1
1.069792258E1,3.323538666E0,6.168971558E0,9.740095367E0,1.199881565E1
1.070790058E1,3.574117584E0,5.996829529E0,9.073082428E0,1.144801754E1
1.071787858E1,3.821403351E0,5.935457153E0,8.067922668E0,1.072026825E1
1.072785558E1,3.883524170E0,5.991291046E0,7.375911713E0,1.026554441E1
1.073783358E1,2.566862183E0,6.005361786E0,7.370522919E0,9.847728659E0
1.074781158E1,1.523681488E0,6.644981689E0,8.078251190E0,1.057050279E1
1.075778958E1,1.066232758E0,7.487878876E0,7.887248383E0,1.092766532E1
1.076776758E1,1.175655212E0,6.325845337E0,7.512278137E0,9.891046821E0
1.077774558E1,8.756790161E-2,7.037914581E0,8.431067505E0,1.098284158E1
1.078772258E1,1.457968140E-1,8.437204742E0,8.121211853E0,1.171160803E1
1.079770058E1,-4.483177185E-1,7.546556854E0,7.841892700E0,1.089251074E1
1.080767858E1,9.370513916E-2,6.301296387E0,6.420598297E0,8.996621549E0
1.081765658E1,7.080276489E-1,6.831194458E0,5.824837189E0,9.005290065E0
1.082763458E1,2.932402039E-1,7.100185089E0,5.266348572E0,8.844944624E0
1.083761258E1,2.477348328E-1,7.042105865E0,5.072202301E0,8.682157782E0
1.084758958E1,8.608598328E-1,7.310198364E0,5.149591370E0,8.983227207E0
1.085756758E1,1.020278320E0,7.403304749E0,4.918172607E0,8.946413295E0
1.086754558E1,5.319937134E-1,7.775879974E0,4.327201538E0,8.914706941E0
1.087752358E1,1.377136230E-1,8.493338013E0,3.853885803E0,9.327818149E0
1.088750158E1,8.547225952E-2,9.160051575E0,4.001329193E0,9.996223570E0
1.089747958E1,4.879852295E-1,9.595346375E0,4.417613525E0,1.057469200E1
1.090745658E1,1.210382996E0,9.665550385E0,4.952301636E0,1.092763390E1
1.091743458E1,1.850601654E0,9.443861389E0,5.311554565E0,1.099199055E1
1.092741258E1,2.152972870E0,9.205407257E0,5.334456940E0,1.085501017E1
1.093739058E1,1.948049011E0,8.861123199E0,5.389841766E0,1.055295189E1
1.094736858E1,2.261197815E0,9.589059448E0,5.470823364E0,1.126911642E1
1.095734558E1,2.661914520E0,9.887987823E0,5.472769318E0,1.161074055E1
1.096732358E1,2.237996063E0,9.369466095E0,6.496340790E0,1.161886246E1
1.097730158E1,1.866019592E0,8.585695953E0,7.156318359E0,1.133177376E1
1.098727958E1,2.774480438E0,9.598789215E0,7.552095337E0,1.252472116E1
1.099725758E1,4.548591156E0,1.163545395E1,8.662785645E0,1.520254338E1
1.100723558E1,5.281018066E0,1.104208786E1,9.092541962E0,1.524766131E1
1.101721258E1,5.741310883E0,1.072399933E1,9.251960449E0,1.528285263E1
1.102719058E1,5.623954926E0,1.046788193E1,9.081015930E0,1.495561003E1
1.103716858E1,4.819677429E0,9.945617981E0,8.199648743E0,1.376149872E1
1.104714658E1,3.660487976E0,8.894503784E0,6.912625122E0,1.184465094E1
1.105712458E1,2.299518127E0,7.463629303E0,5.469476166E0,9.534606207E0
1.106710258E1,6.105802917E-1,6.042185211E0,4.625531158E0,7.633894741E0
1.107707958E1,-1.008901978E0,4.689148865E0,4.674030304E0,6.697205354E0
1.108705758E1,-2.228415985E0,3.393293610E0,5.257666626E0,6.642540002E0
1.109703558E1,-3.387006683E0,2.080523529E0,5.451064453E0,6.746443218E0
1.110701358E1,-4.667893066E0,1.029409332E0,5.350323944E0,7.174599331E0
1.111699158E1,-5.870791626E0,1.706451416E-1,5.221292267E0,7.858575381E0
1.112696858E1,-6.972051544E0,-7.493417358E-1,5.035678253E0,8.633022138E0
1.113694658E1,-7.963439941E0,-1.437011719E0,4.997807007E0,9.511017467E0
1.114692458E1,-8.636440430E0,-1.940564575E0,5.685626678E0,1.052046790E1
1.115690258E1,-9.091045074E0,-2.452799377E0,6.663842468E0,1.153560236E1
1.116688058E1,-9.472002869E0,-2.907404022E0,7.167694702E0,1.222896904E1
1.117685858E1,-9.616452484E0,-3.213517456E0,6.921456757E0,1.227637636E1
1.118683558E1,-9.582323456E0,-3.219055939E0,6.553970947E0,1.204731419E1
1.119681358E1,-9.043893127E0,-2.873125305E0,6.374943237E0,1.143183070E1
1.120679158E1,-7.568112030E0,-2.041305084E0,5.885012054E0,9.801867834E0
1.121676958E1,-6.535858612E0,-8.955876160E-1,4.961582336E0,8.254503271E0
1.122674758E1,-5.902825012E0,3.171903992E-1,4.482877808E0,7.418904657E0
1.123672458E1,-4.818479919E0,1.139729919E0,4.171525269E0,6.474438670E0
1.124670258E1,-3.866759033E0,2.127974854E0,3.942351837E0,5.917959142E0
1.125668058E1,-2.998265076E0,3.333567810E0,3.814667358E0,5.886760982E0
1.126665858E1,-2.002086639E0,4.648732910E0,3.788621521E0,6.322398407E0
1.127663658E1,-9.704319763E-1,6.042933655E0,3.759581909E0,7.182843553E0
1.128661458E1,1.639091492E-1,7.423213348E0,3.459456024E0,8.191385634E0
1.129659158E1,1.199904785E0,9.046587524E0,3.490591278E0,9.770606163E0
1.130656958E1,2.392325134E0,1.061143341E1,4.027075653E0,1.159927053E1
1.131654758E1,3.368744659E0,1.202703964E1,5.042414246E0,1.346937506E1
1.132652558E1,4.210743713E0,1.316362610E1,5.959856415E0,1.505095689E1
1.133650358E1,4.494553528E0,1.394140869E1,6.344706116E0,1.596305683E1
1.134648158E1,4.757855988E0,1.476784012E1,7.111112366E0,1.706734351E1
1.135645858E1,5.081483002E0,1.532243683E1,7.511230316E0,1.780497461E1
1.136643658E1,5.091661835E0,1.574366089E1,7.662864990E0,1.823478484E1
1.137641458E1,5.475164337E0,1.597777405E1,7.739056549E0,1.857847368E1
1.138639258E1,5.619164886E0,1.644405441E1,8.027357025E0,1.914211066E1
1.139637058E1,5.766009521E0,1.678040497E1,8.686436462E0,1.975558238E1
1.140634758E1,6.331832886E0,1.671573944E1,9.396859131E0,2.019428172E1
1.141632558E1,6.541247406E0,1.657757675E1,9.843081207E0,2.035903279E1
1.142630371E1,6.241869965E0,1.598136658E1,9.667646027E0,1.969335924E1
1.143628171E1,5.481151886E0,1.476379852E1,8.694519653E0,1.798909238E1
1.144625971E1,4.596940613E0,1.346509918E1,7.880362701E0,1.626471258E1
1.145623771E1,3.574866028E0,1.199725159E1,7.240593109E0,1.446167007E1
1.146621471E1,2.546354828E0,1.034977753E1,6.236181793E0,1.234875626E1
1.147619271E1,1.285227356E0,8.907077637E0,5.455255737E0,1.052367125E1
1.148617071E1,8.502319336E-2,7.496710510E0,4.995711365E0,9.009163638E0
1.149614871E1,-8.699908447E-1,6.070626068E0,4.684059448E0,7.716851550E0
1.150612671E1,-1.831142120E0,4.772226105E0,4.245770874E0,6.644832110E0
1.151610371E1,-2.650388489E0,3.707789612E0,3.588487701E0,5.800819505E0
1.152608171E1,-3.198847961E0,2.761906586E0,2.853665771E0,5.099427870E0
1.153605971E1,-3.804039459E0,1.937720490E0,2.456990662E0,4.925675590E0
1.154603771E1,-4.675527191E0,1.276994476E0,2.631827087E0,5.515231929E0
1.155601571E1,-5.336103516E0,4.394860840E-1,3.083887024E0,6.178795022E0
1.156599371E1,-5.848787384E0,-4.409829712E-1,3.676504669E0,6.922388780E0
1.157597071E1,-6.621929626E0,-6.830296326E-1,4.843328247E0,8.232515409E0
1.158594871E1,-6.887776794E0,-9.400451660E-1,5.750890961E0,9.022078526E0
1.159592671E1,-6.867419128E0,-1.269510040E0,6.188880157E0,9.331416764E0
1.160590471E1,-6.694977722E0,-1.505868530E0,6.403384094E0,9.385824129E0
1.161588271E1,-6.382577362E0,-1.603315887E0,6.628665619E0,9.340616870E0
1.162585971E1,-6.047424316E0,-1.315614166E0,6.793023834E0,9.189524161E0
1.163583771E1,-5.585484924E0,-7.295828247E-1,6.949448547E0,8.945656379E0
1.164581571E1,-4.957989807E0,-2.709365845E-1,7.188351746E0,8.736559413E0
1.165579371E1,-4.521647186E0,1.442999268E-1,7.439529419E0,8.707049657E0
1.166577171E1,-4.415068817E0,3.736230469E-1,7.622898102E0,8.817085817E0
1.167574971E1,-4.872517548E0,3.758683777E-1,7.782615967E0,9.189766895E0
1.168572671E1,-5.571713562E0,2.019300842E-1,7.887996826E0,9.659464877E0
1.169570471E1,-6.275400238E0,-2.275268555E-2,7.924071808E0,1.010802057E1
1.170568271E1,-7.020251312E0,-3.113525391E-1,7.915689240E0,1.058484790E1
1.171566071E1,-7.615713043E0,-6.815327454E-1,7.772137756E0,1.090273807E1
1.172563871E1,-7.953261108E0,-1.115330658E0,7.625143433E0,1.107434590E1
1.173561571E1,-7.931256866E0,-1.639390869E0,7.907306671E0,1.131891941E1
1.174559371E1,-7.837402039E0,-2.054627380E0,8.372838593E0,1.165121412E1
1.175557171E1,-7.802973633E0,-2.373913422E0,8.890312500E0,1.206480496E1
1.176554971E1,-7.549700317E0,-2.731968842E0,9.317673798E0,1.229962087E1
1.177552771E1,-7.051835632E0,-2.884501648E0,9.787247314E0,1.240318288E1
1.178550571E1,-6.399043121E0,-2.384541321E0,1.101005447E1,1.295589015E1
1.179548271E1,-5.157674561E0,-1.930834808E0,1.207703568E1,1.327345172E1
1.180546071E1,-3.455713806E0,-2.124831390E0,1.308384201E1,1.369831333E1
1.181543871E1,-2.177671509E0,-1.007554779E0,1.512185394E1,1.531103806E1
1.182541671E1,-1.187630310E0,4.391867065E-1,1.525687317E1,1.530932819E1
1.183539471E1,-4.902305603E-1,1.434167633E0,1.318353470E1,1.327037113E1
1.184537171E1,3.429368591E-1,1.855092316E0,1.151690048E1,1.167038859E1
1.185534971E1,6.616241455E-1,2.164349213E0,1.055380325E1,1.079374435E1
1.186532771E1,-1.669029236E-1,2.543361053E0,9.800419922E0,1.012643929E1
1.187530571E1,-1.426383820E0,2.533631287E0,9.712852020E0,1.013870567E1
1.188528371E1,-2.004781036E0,2.068398743E0,9.974208527E0,1.038182335E1
1.189526171E1,-1.876348114E0,1.632654877E0,9.615554352E0,9.932025457E0
1.190523871E1,-1.458117828E0,1.397643585E0,9.588460693E0,9.798882266E0
1.191521671E1,-1.770817566E0,1.025068359E0,8.821605377E0,9.055787179E0
1.192519471E1,-1.896855469E0,1.592687988E0,7.678133240E0,8.067741056E0
1.193517271E1,-1.572180634E0,2.959645386E0,7.341782684E0,8.070503438E0
1.194515071E1,-8.111631775E-1,4.195774841E0,7.498057709E0,8.630375520E0
1.195512771E1,5.270539856E-1,4.933291168E0,7.496411133E0,8.989512085E0
1.196510571E1,1.682950287E0,5.354515228E0,7.337441711E0,9.238030411E0
1.197508371E1,2.051633606E0,5.701942749E0,7.372917938E0,9.543650795E0
1.198506171E1,1.958826599E0,5.981561279E0,7.302564240E0,9.640722040E0
1.199503971E1,1.629361725E0,6.299350433E0,7.423363037E0,9.871319785E0
1.200501771E1,1.270857239E0,6.532415771E0,7.965834961E0,1.037988731E1
1.201499471E1,1.500479736E0,6.327342224E0,8.423283691E0,1.064135364E1
1.202497271E1,1.794318695E0,6.142027588E0,8.717272339E0,1.081364506E1
1.203495071E1,1.887574768E0,6.305038605E0,9.041797485E0,1.118349463E1
1.204492871E1,2.181862793E0,6.680308228E0,9.227860565E0,1.159915746E1
1.205490671E1,3.085383911E0,6.835535431E0,9.079668732E0,1.177643931E1
1.206488371E1,4.315226440E0,6.681505737E0,8.772357788E0,1.184136645E1
1.207486171E1,4.830604706E0,7.326664124E0,7.693700867E0,1.167080897E1
1.208483971E1,4.755161591E0,9.350904694E0,6.484964447E0,1.233311575E1
1.209481771E1,4.675527191E0,1.096634537E1,7.297025757E0,1.397740570E1
1.210479571E1,5.409001923E0,1.117695740E1,9.541159058E0,1.565935486E1
1.211477371E1,5.719306641E0,9.993668060E0,1.029783554E1,1.544763045E1
1.212475071E1,5.406906281E0,9.028624878E0,1.021086639E1,1.466330438E1
1.213472871E1,4.565955048E0,8.322094116E0,9.812395020E0,1.365240975E1
1.214470671E1,3.689976654E0,7.197033691E0,8.475525055E0,1.171527834E1
1.215468471E1,3.012335815E0,6.651268616E0,6.872358856E0,1.002710614E1
1.216466271E1,1.906734924E0,6.557114410E0,5.533692627E0,8.789376630E0
1.217463971E1,8.030799866E-1,6.436614990E0,4.533771973E0,7.913914221E0
1.218461771E1,-1.100212097E-1,6.443949738E0,4.207450562E0,7.696702743E0
1.219459571E1,-1.029259644E0,6.408922577E0,4.235142975E0,7.750490309E0
1.220457371E1,-1.447190552E0,6.308930511E0,4.173770599E0,7.701774192E0
1.221455171E1,-1.338217163E0,6.541846161E0,4.632566528E0,8.126945860E0
1.222452971E1,-1.531016235E0,6.245462494E0,4.683161316E0,7.954986636E0
1.223450671E1,-2.220482483E0,5.740562439E0,4.272116089E0,7.492367813E0
1.224448471E1,-3.456911316E0,5.740712128E0,4.279600525E0,7.951162948E0
1.225446271E1,-4.539909210E0,5.561534729E0,4.178560638E0,8.306733003E0
1.226444071E1,-5.338947601E0,5.159171448E0,3.473975830E0,8.196945747E0
1.227441871E1,-6.358178101E0,4.689298553E0,2.102228394E0,8.175286778E0
1.228439571E1,-7.082970886E0,4.360282745E0,9.400451660E-1,8.370437689E0
1.229437371E1,-7.270530853E0,4.364324341E0,9.976753235E-1,8.538343041E0
1.230435171E1,-7.140750732E0,4.278702393E0,1.500779114E0,8.458720538E0
1.231432971E1,-6.870861969E0,4.384083252E0,2.246079254E0,8.454218011E0
1.232430771E1,-6.839277649E0,4.861290894E0,3.399580536E0,9.053453249E0
1.233428571E1,-6.920858002E0,5.201533356E0,4.466112671E0,9.741682972E0
1.234426271E1,-6.641538849E0,5.021906891E0,5.055437164E0,9.740997486E0
1.235424071E1,-6.267317047E0,4.739294586E0,5.212161255E0,9.429040306E0
1.236421871E1,-5.934409332E0,4.975802765E0,5.405110016E0,9.444100887E0
1.237419671E1,-5.682782593E0,4.862189026E0,5.297334137E0,9.164968580E0
1.238417471E1,-5.189857635E0,4.309089203E0,5.071902924E0,8.439613220E0
1.239415171E1,-4.518503723E0,4.877756653E0,6.075116730E0,9.006465963E0
1.240412971E1,-4.186494141E0,4.910987549E0,8.319998474E0,1.052933552E1
1.241410771E1,-3.667074280E0,4.612358551E0,9.388177185E0,1.108418495E1
1.242408542E1,-3.307521973E0,4.164040833E0,9.297765198E0,1.071108656E1
1.243406342E1,-3.070115662E0,3.563040619E0,8.984017639E0,1.014068250E1
1.244404042E1,-2.821931763E0,3.456611938E0,8.930578766E0,9.983321194E0
1.245401842E1,-2.587369537E0,3.835174713E0,9.453291779E0,1.052462691E1
1.246399642E1,-2.312990112E0,4.186793518E0,1.006027954E1,1.113949674E1
1.247397442E1,-1.984123993E0,4.629123688E0,1.155596924E1,1.260579070E1
1.248395242E1,-2.345622253E0,4.870721283E0,1.297950897E1,1.406035287E1
1.249393042E1,-2.957849121E0,4.422553253E0,1.325478653E1,1.428275935E1
1.250390742E1,-3.469335480E0,4.134851532E0,1.305330551E1,1.412522816E1
1.251388542E1,-4.141288147E0,3.803291016E0,1.193647797E1,1.319449871E1
1.252386342E1,-4.512516174E0,3.414998474E0,1.010279114E1,1.157978435E1
1.253384142E1,-4.275409241E0,3.107687531E0,8.361911316E0,9.892340816E0
1.254381942E1,-3.423381042E0,2.883304138E0,7.071295166E0,8.368763101E0
1.255379642E1,-1.401834869E0,2.539469147E0,6.820865936E0,7.412034584E0
1.256377442E1,1.644480286E0,2.965782623E0,7.948022003E0,8.641251978E0
1.257375242E1,2.961142273E0,3.913611603E0,8.453221436E0,9.774542034E0
1.258373042E1,3.200644226E0,4.123325500E0,7.402406616E0,9.057679634E0
1.259370842E1,3.000959473E0,4.069287872E0,6.217620392E0,8.013966863E0
1.260368642E1,2.200274506E0,3.526516571E0,5.159470825E0,6.625531392E0
1.261366342E1,2.061363373E0,2.618654480E0,4.111200714E0,5.292309661E0
1.262364142E1,3.307072906E0,2.518063660E0,2.853067017E0,5.041563964E0
1.263361942E1,4.726121979E0,3.073408813E0,1.505868530E0,5.835212997E0
1.264359742E1,5.010380859E0,3.808081055E0,3.477268982E-1,6.302881220E0
1.265357542E1,4.565356293E0,4.210893402E0,-3.851490784E-1,6.222735824E0
1.266355242E1,3.809128876E0,3.831881561E0,-4.083508301E-1,5.418443457E0
1.267353042E1,3.003653870E0,2.567311249E0,6.017486572E-2,3.951790054E0
1.268350842E1,3.195105743E0,1.612297211E0,8.711883545E-1,3.683364244E0
1.269348642E1,4.317471771E0,1.773811340E0,1.978286133E0,5.069574458E0
1.270346442E1,5.785169678E0,2.722538452E0,3.227438507E0,7.162175866E0
1.271344242E1,6.822662201E0,3.735482025E0,4.186943207E0,8.833631127E0
1.272341942E1,7.383695526E0,4.441114655E0,4.762646027E0,9.845062528E0
1.273339742E1,7.922125854E0,5.054688721E0,5.508694611E0,1.089291845E1
1.274337542E1,8.712033234E0,5.662275238E0,6.736291809E0,1.238299282E1
1.275335342E1,1.070004913E1,6.480174408E0,8.273145905E0,1.499762164E1
1.276333142E1,1.341689941E1,8.010591888E0,1.035636383E1,1.874665421E1
1.277330842E1,1.578527435E1,9.889484711E0,1.277383667E1,2.258644942E1
1.278328642E1,1.729413666E1,1.144819336E1,1.450348984E1,2.530809182E1
1.279326442E1,1.837997864E1,1.265618134E1,1.502350845E1,2.690182795E1
1.280324242E1,1.872590927E1,1.302651123E1,1.463147369E1,2.710036338E1
1.281322042E1,1.789857971E1,1.205622894E1,1.391012375E1,2.567495579E1
1.282319842E1,1.606429413E1,1.024379791E1,1.291304718E1,2.301616234E1
1.283317542E1,1.428449524E1,8.211474152E0,1.179532150E1,2.026338376E1
1.284315342E1,1.268791534E1,6.043831787E0,1.072040680E1,1.767592205E1
1.285313142E1,1.124865829E1,4.666994934E0,1.007449997E1,1.580533786E1
1.286310942E1,1.002031265E1,3.802093506E0,1.008467880E1,1.471609076E1
1.287308742E1,9.192084961E0,2.544408875E0,1.011132339E1,1.389990299E1
1.288306442E1,8.376281433E0,9.566606140E-1,1.004561005E1,1.311455571E1
1.289304242E1,6.966213684E0,-1.070274353E0,9.715845795E0,1.200296962E1
1.290302042E1,5.291196899E0,-3.101400604E0,8.454269257E0,1.044462153E1
1.291299842E1,4.621190186E0,-3.945195923E0,6.791826324E0,9.113115517E0
1.292297642E1,3.601959686E0,-4.185296631E0,5.153483276E0,7.553092833E0
1.293295342E1,1.661544800E0,-4.461023254E0,3.643722839E0,5.994845763E0
1.294293142E1,-4.463717651E-1,-4.087100830E0,3.134481812E0,5.169972647E0
1.295290942E1,-1.928439789E0,-3.015778656E0,4.970713348E0,6.125503417E0
1.296288742E1,-3.959416351E0,-1.091380463E0,4.837490387E0,6.345817709E0
1.297286542E1,-5.590274963E0,-7.963439941E-2,3.403472443E0,6.545314391E0
1.298284342E1,-6.572682037E0,5.441184998E-1,2.731669464E0,7.138503496E0
1.299282042E1,-7.663164368E0,1.356479187E0,2.711012421E0,8.240977627E0
1.300279842E1,-8.441845093E0,2.248923340E0,3.084785156E0,9.264896342E0
1.301277642E1,-8.977281647E0,3.273991699E0,3.864813080E0,1.030763734E1
1.302275442E1,-9.328451385E0,3.909420319E0,4.637655945E0,1.112705824E1
1.303273242E1,-9.702972565E0,4.103566589E0,4.708309021E0,1.153928547E1
1.304270942E1,-1.017464172E1,4.375101929E0,4.051175537E0,1.179308587E1
1.305268742E1,-1.026999344E1,4.716092834E0,3.225492554E0,1.175236568E1
1.306266542E1,-1.020098694E1,5.077441406E0,2.759960632E0,1.172424533E1
1.307264342E1,-1.027613068E1,5.294789429E0,2.979404297E0,1.193777646E1
1.308262142E1,-9.777966614E0,4.902604980E0,3.702999573E0,1.154800297E1
1.309259842E1,-8.749006348E0,4.045487366E0,5.043013000E0,1.087855966E1
1.310257642E1,-7.732919312E0,3.181035004E0,6.674919434E0,1.069913895E1
1.311255442E1,-6.988217926E0,2.687361603E0,7.971074066E0,1.093595556E1
1.312253242E1,-6.435267792E0,2.440973969E0,8.387807465E0,1.085017694E1
1.313251042E1,-6.367758179E0,1.982477417E0,7.807913361E0,1.026849901E1
1.314248842E1,-6.473588104E0,1.814227295E0,6.399791565E0,9.282030796E0
1.315246542E1,-5.895041199E0,1.835932159E0,5.113067322E0,8.016583753E0
1.316244342E1,-5.409151611E0,1.539099426E0,4.927902374E0,7.477430709E0
1.317242142E1,-4.616400146E0,7.303312683E-1,4.712799683E0,6.637395191E0
1.318239942E1,-3.293451233E0,2.980302429E-1,3.988156586E0,5.180833524E0
1.319237742E1,-1.474733276E0,4.809498596E-1,3.014880524E0,3.390524381E0
1.320235442E1,9.151968384E-1,1.473685455E0,2.922971649E0,3.398984751E0
1.321233242E1,3.139870605E0,2.231260071E0,3.509601746E0,5.211008860E0
1.322231042E1,4.768932953E0,1.682201843E0,4.657863922E0,6.875188788E0
1.323228842E1,5.734874268E0,1.117126923E0,6.727759552E0,8.910639933E0
1.324226642E1,5.859265594E0,1.530567169E0,8.460256805E0,1.040430557E1
1.325224342E1,5.906267853E0,1.924248505E0,9.398954773E0,1.126619204E1
1.326222142E1,6.208339691E0,2.063608704E0,1.003528152E1,1.197951743E1
1.327219942E1,6.864425354E0,2.577789459E0,1.054796539E1,1.284620208E1
1.328217742E1,7.906408539E0,3.743265839E0,1.072010742E1,1.383633038E1
1.329215542E1,8.959319000E0,5.369484100E0,1.090527237E1,1.510052058E1
1.330213342E1,1.024319916E1,7.057074738E0,1.131242569E1,1.681357808E1
1.331211042E1,1.157617722E1,8.850495300E0,1.196806229E1,1.885666092E1
1.332208842E1,1.278551239E1,1.083641556E1,1.250798950E1,2.091284368E1
1.333206642E1,1.359143646E1,1.252655090E1,1.261591507E1,2.237862676E1
1.334204442E1,1.382225647E1,1.319685699E1,1.237955658E1,2.276983157E1
1.335202242E1,1.366478394E1,1.265678009E1,1.197614548E1,2.214381319E1
1.336199942E1,1.306438248E1,1.140298737E1,1.121452927E1,2.065119554E1
1.337197742E1,1.203407501E1,9.806257782E0,1.022373962E1,1.858780528E1
1.338195542E1,1.032163605E1,8.198750610E0,9.448352051E0,1.621810836E1
1.339193342E1,8.505612488E0,6.820865936E0,8.989107056E0,1.413059452E1
1.340191142E1,7.200476532E0,5.486840057E0,8.735833740E0,1.258042397E1
1.341188842E1,6.379134521E0,4.370760956E0,8.249944153E0,1.130745272E1
1.342186642E1,6.174360352E0,3.924538879E0,7.932903442E0,1.079146367E1
1.343184467E1,6.185886383E0,3.976181488E0,7.818092194E0,1.073302265E1
1.344182267E1,6.364465027E0,4.210893402E0,7.764952698E0,1.088726452E1
1.345180067E1,6.359225922E0,4.376598816E0,7.419171753E0,1.070693612E1
1.346177867E1,6.603218536E0,4.212090912E0,6.823560333E0,1.038774184E1
1.347175567E1,6.515201569E0,4.020639038E0,6.625222778E0,1.012457242E1
1.348173367E1,5.487438812E0,4.094136200E0,6.539301453E0,9.467650154E0
1.349171167E1,4.469555511E0,3.850592651E0,6.123166809E0,8.502773783E0
1.350168967E1,3.582649841E0,3.230581970E0,5.666167145E0,7.441605328E0
1.351166767E1,2.297871552E0,2.283202057E0,5.337750092E0,6.243781013E0
1.352164467E1,4.031117249E-1,1.367556152E0,4.730313263E0,4.940503260E0
1.353162267E1,-8.173004150E-1,1.001866608E0,4.385280762E0,4.571914700E0
1.354160067E1,-1.280287628E0,1.458866272E0,4.791685638E0,5.169881862E0
1.355157867E1,-1.463207245E0,2.423909454E0,6.087241516E0,6.713480599E0
1.356155667E1,-1.517993317E0,2.716401215E0,7.087611237E0,7.740631260E0
1.357153367E1,-2.272274780E0,2.274220734E0,6.635700989E0,7.373455108E0
1.358151167E1,-3.381318512E0,1.722917175E0,5.449118500E0,6.640380328E0
1.359148967E1,-4.677473145E0,1.303489380E0,3.518134003E0,5.996257703E0
1.360146767E1,-5.539829865E0,1.419947205E0,2.888094177E0,6.406797403E0
1.361144567E1,-5.531447296E0,1.340013428E0,4.158202972E0,7.048630870E0
1.362142367E1,-5.287454681E0,9.442364502E-1,5.013374634E0,7.347290977E0
1.363140067E1,-5.973029022E0,1.209185486E0,6.045777740E0,8.584324885E0
1.364137867E1,-6.583160248E0,2.147584076E0,7.381899261E0,1.012139086E1
1.365135667E1,-6.652466125E0,2.925067291E0,8.438851318E0,1.113667526E1
1.366133467E1,-6.718778229E0,3.319347382E0,9.205856323E0,1.187046076E1
1.367131267E1,-7.018604736E0,3.416345673E0,9.524992676E0,1.231493872E1
1.368128967E1,-7.433990936E0,3.268752594E0,9.610914001E0,1.258247323E1
1.369126767E1,-7.799381104E0,2.942281494E0,9.426198120E0,1.258334522E1
1.370124567E1,-8.163274384E0,2.488125916E0,9.199868774E0,1.254860170E1
1.371122367E1,-8.465944977E0,2.133213959E0,9.209897919E0,1.269035247E1
1.372120167E1,-8.686735840E0,2.085463257E0,9.613159332E0,1.312331394E1
1.373117867E1,-8.626710663E0,2.075284424E0,9.865235138E0,1.326837619E1
1.374115667E1,-8.299940186E0,2.121388550E0,9.970765686E0,1.314554924E1
1.375113467E1,-7.543114014E0,2.366878052E0,1.003453308E1,1.277468336E1
1.376111267E1,-6.484814758E0,2.656675415E0,9.814041595E0,1.205927689E1
1.377109067E1,-5.453908539E0,3.348386993E0,9.972412262E0,1.184929619E1
1.378106767E1,-5.223537598E0,3.709735565E0,1.047177383E1,1.227621808E1
1.379104567E1,-5.647306366E0,2.769989777E0,1.004680756E1,1.185340688E1
1.380102367E1,-6.061345367E0,1.470841370E0,9.999505920E0,1.178530444E1
1.381100167E1,-6.727460175E0,5.641767883E-1,1.101394638E1,1.291836022E1
1.382097967E1,-7.341183929E0,-5.319937134E-1,1.164772842E1,1.377844607E1
1.383095667E1,-7.612270203E0,-1.490600281E0,1.096709381E1,1.343300761E1
1.384093467E1,-7.060367889E0,-1.719624023E0,1.049497559E1,1.276520325E1
1.385091267E1,-5.449118500E0,-2.233655090E0,1.045680496E1,1.200111984E1
1.386089067E1,-3.222349091E0,-2.833607483E0,1.003827530E1,1.091695177E1
1.387086867E1,-1.008602600E0,-3.175346832E0,9.075627136E0,9.667839191E0
1.388084667E1,9.101074219E-1,-2.034868469E0,7.963140564E0,8.269255882E0
1.389082367E1,2.552192688E0,-1.351689148E0,7.059020691E0,7.626960350E0
1.390080167E1,3.573219452E0,-5.665718079E-1,5.824238434E0,6.856431594E0
1.391077967E1,4.383634186E0,2.921923828E-1,4.355642395E0,6.186537459E0
1.392075767E1,4.815785522E0,1.283431091E0,3.274291077E0,5.963217891E0
1.393073567E1,4.465513916E0,2.278561707E0,2.783012695E0,5.733918176E0
1.394071267E1,3.732488251E0,3.479214935E0,2.695295105E0,5.770703667E0
1.395069067E1,3.331621857E0,4.486170959E0,2.711012421E0,6.210879360E0
1.396066867E1,3.828289032E0,5.381309509E0,2.573598175E0,7.087855565E0
1.397064667E1,4.688250732E0,6.414760437E0,2.573598175E0,8.351781484E0
1.398062467E1,5.306465149E0,7.123835907E0,2.711311798E0,9.287562763E0
1.399060167E1,5.572611694E0,7.405699768E0,2.994672546E0,9.739941161E0
1.400057967E1,5.765111389E0,7.646548920E0,3.437601471E0,1.017464120E1
1.401055767E1,6.310726776E0,8.418044586E0,3.841910706E0,1.120040289E1
1.402053567E1,6.925947418E0,9.626182251E0,4.067341919E0,1.253696146E1
1.403051367E1,7.129673767E0,1.029618896E1,4.393363953E0,1.327197808E1
1.404049067E1,7.077133026E0,1.028166916E1,5.032085724E0,1.345809865E1
1.405046867E1,7.031178589E0,9.794132996E0,5.845344543E0,1.339890168E1
1.406044667E1,7.070546722E0,9.015601959E0,6.633455658E0,1.323920102E1
1.407042467E1,7.132667542E0,8.232131195E0,7.321874084E0,1.312451029E1
1.408040267E1,7.236850891E0,7.422464905E0,7.821834412E0,1.298638093E1
1.409037967E1,7.382947083E0,6.600823517E0,8.018974457E0,1.274294825E1
1.410035767E1,7.475454712E0,5.984105988E0,7.986791382E0,1.246919341E1
1.411033567E1,7.607480164E0,5.618715820E0,7.762707367E0,1.223533194E1
1.412031367E1,7.678731995E0,5.511538696E0,7.489675140E0,1.205965246E1
1.413029167E1,7.438182220E0,5.602250061E0,7.313940582E0,1.184083981E1
1.414026967E1,7.017856293E0,5.799539795E0,7.195087738E0,1.160406206E1
1.415024667E1,6.355034637E0,5.983357544E0,6.998696136E0,1.118788543E1
1.416022467E1,5.750292206E0,6.005511475E0,6.655160522E0,1.065003240E1
1.417020267E1,5.283263397E0,5.843697968E0,6.178102570E0,1.001152483E1
1.418018067E1,4.902904358E0,5.448070679E0,5.728287964E0,9.302323810E0
1.419015867E1,4.776417389E0,5.113965454E0,5.224884796E0,8.733053697E0
1.420013567E1,4.824467468E0,4.847968597E0,4.668940887E0,8.281140917E0
1.421011367E1,4.758754120E0,4.520749054E0,4.213288422E0,7.799661025E0
1.422009167E1,4.669389954E0,4.177213440E0,4.197571106E0,7.541347217E0
1.423006967E1,4.528832245E0,3.738775177E0,4.650529175E0,7.491073550E0
1.424004767E1,4.315376129E0,3.340752869E0,5.549260254E0,7.783147836E0
1.425002467E1,4.171824646E0,2.932551727E0,6.623725891E0,8.359289754E0
1.426000267E1,4.081861725E0,2.814297638E0,7.725135498E0,9.179301978E0
1.426998067E1,4.050726471E0,2.685715027E0,8.585995331E0,9.866142406E0
1.427995867E1,3.942052460E0,2.319576416E0,9.203311615E0,1.027721543E1
1.428993667E1,3.724554749E0,1.986818390E0,9.623188477E0,1.050835438E1
1.429991367E1,3.480861511E0,1.816023560E0,9.863438873E0,1.061610874E1
1.430989167E1,3.322640533E0,1.753154297E0,1.018691620E1,1.085756657E1
1.431986967E1,3.188369751E0,1.781744843E0,1.046982788E1,1.108862535E1
1.432984767E1,3.224145355E0,1.919009399E0,1.059631485E1,1.124097855E1
1.433982567E1,3.528911591E0,1.971550140E0,1.035786072E1,1.111870072E1
1.434980367E1,3.768263855E0,1.925595703E0,9.925260315E0,1.078974159E1
1.435978067E1,3.711232452E0,1.823507996E0,9.563762054E0,1.041940365E1
1.436975867E1,3.570674744E0,1.679657135E0,9.291328583E0,1.009454075E1
1.437973667E1,3.397933960E0,1.628463593E0,9.821376343E0,1.051937651E1
1.438971467E1,3.204835510E0,1.385069733E0,1.068777466E1,1.124357221E1
1.439969267E1,3.354374542E0,1.097667389E0,1.165835632E1,1.218088562E1
1.440966967E1,3.624412994E0,8.692424011E-1,1.305659866E1,1.357817074E1
1.441964767E1,3.880231018E0,7.620652771E-1,1.421024963E1,1.475019088E1
1.442962567E1,4.145180054E0,9.006770325E-1,1.493354553E1,1.552432024E1
1.443960367E1,4.317920837E0,8.916957092E-1,1.501901779E1,1.565280988E1
1.444958167E1,4.486470337E0,8.809181213E-1,1.483310440E1,1.552177242E1
1.445955867E1,4.575086060E0,1.033001862E0,1.470976089E1,1.543941614E1
1.446953667E1,4.397555237E0,1.087488556E0,1.471410187E1,1.539564605E1
1.447951467E1,4.006717987E0,8.768765259E-1,1.424333084E1,1.482211776E1
1.448949267E1,3.372786255E0,1.080004120E0,1.330897385E1,1.377210517E1
1.449947067E1,2.883753204E0,1.866468658E0,1.267549118E1,1.313270020E1
1.450944767E1,2.875370636E0,2.451452179E0,1.251786896E1,1.307571862E1
1.451942567E1,3.079396362E0,2.405946808E0,1.221534805E1,1.282520916E1
1.452940367E1,3.278931427E0,2.164049835E0,1.166479294E1,1.230861070E1
1.453938167E1,3.356021118E0,1.960922241E0,1.086515579E1,1.153948457E1
1.454935967E1,3.340453491E0,1.968256989E0,9.967771912E0,1.069528597E1
1.455933667E1,3.244203644E0,2.510429535E0,9.151669006E0,1.002896602E1
1.456931467E1,3.027753754E0,3.214265900E0,8.584648132E0,9.653754794E0
1.457929267E1,2.821482697E0,3.727997589E0,8.146658936E0,9.392911287E0
1.458927067E1,2.517913971E0,3.917802887E0,7.941435699E0,9.206273469E0
1.459924867E1,2.014810181E0,3.740870819E0,7.810607758E0,8.891522260E0
1.460922567E1,1.442400513E0,3.786525879E0,7.671397247E0,8.675749720E0
1.461920367E1,9.883946228E-1,4.085603943E0,7.459587708E0,8.562390570E0
1.462918167E1,6.131250000E-1,4.373305664E0,7.063211975E0,8.330107328E0
1.463915967E1,1.790277100E-1,4.457879791E0,6.603218536E0,7.969142877E0
1.464913767E1,-2.357597351E-1,4.488865356E0,6.067632294E0,7.551268535E0
1.465911567E1,-5.840853882E-1,4.696184235E0,5.556744690E0,7.298815908E0
1.466909267E1,-8.662486267E-1,4.947960663E0,5.092559967E0,7.153102014E0
1.467907067E1,-1.140029297E0,5.105582886E0,4.588258667E0,6.958359074E0
1.468904867E1,-1.434766388E0,5.346581726E0,4.113446045E0,6.896733220E0
1.469902667E1,-1.623972931E0,5.733826447E0,3.776197357E0,7.055049275E0
1.470900467E1,-1.767524414E0,6.089037781E0,3.544628906E0,7.263946430E0
1.471898167E1,-1.949096832E0,6.316864014E0,3.525618439E0,7.492111505E0
1.472895967E1,-2.157762909E0,6.362369385E0,3.649560699E0,7.645585541E0
1.473893767E1,-2.350262604E0,6.388415222E0,3.872447205E0,7.831438610E0
1.474891567E1,-2.452050934E0,6.409970398E0,4.216731262E0,8.054880311E0
1.475889367E1,-2.567760315E0,6.329138489E0,4.638105011E0,8.256113198E0
1.476887067E1,-2.686313782E0,6.254443817E0,5.011129303E0,8.452559736E0
1.477884867E1,-2.703078918E0,6.131250000E0,5.215155029E0,8.490977811E0
1.478882667E1,-2.573448486E0,5.803282013E0,5.306914215E0,8.274301041E0
1.479880467E1,-2.472408600E0,5.600603485E0,5.708379364E0,8.370493333E0
1.480878267E1,-2.439327393E0,5.509742432E0,6.241121521E0,8.675204760E0
1.481875967E1,-2.303559723E0,5.583239594E0,6.650220795E0,8.983562121E0
1.482873767E1,-2.003583527E0,5.835764465E0,7.190746765E0,9.475090125E0
1.483871567E1,-1.681902466E0,6.072871399E0,7.842491455E0,1.006047887E1
1.484869367E1,-1.414109344E0,6.171815643E0,8.558302917E0,1.064591764E1
1.485867167E1,-1.263223114E0,6.174060974E0,9.095984802E0,1.106578967E1
1.486864867E1,-1.251248016E0,6.186634827E0,9.257798309E0,1.120477138E1
1.487862667E1,-1.359472961E0,6.179000702E0,9.075327759E0,1.106299193E1
1.488860467E1,-1.567689972E0,6.106701050E0,8.721763000E0,1.076190501E1
1.489858267E1,-1.725012817E0,6.030359802E0,8.408763885E0,1.049038696E1
1.490856067E1,-1.524429932E0,5.972729645E0,8.154891815E0,1.022250686E1
1.491853767E1,-1.291514282E0,5.968538361E0,7.954159241E0,1.002796632E1
1.492851567E1,-1.243913269E0,6.023174744E0,7.786208496E0,9.922247576E0
1.493849367E1,-1.376238098E0,6.062692566E0,7.648644562E0,9.856573242E0
1.494847167E1,-1.594783630E0,6.087540894E0,7.503745880E0,9.793247224E0
1.495844967E1,-1.853146362E0,6.099066925E0,7.388335876E0,9.758087713E0
1.496842667E1,-2.019450531E0,6.161487122E0,7.345824280E0,9.798124226E0
1.497840467E1,-1.973346405E0,6.258186035E0,7.397317200E0,9.888341127E0
1.498838267E1,-1.727108459E0,6.177653503E0,7.589816895E0,9.937385317E0
1.499836067E1,-1.477128296E0,5.936654663E0,7.781867523E0,9.898648329E0
1.500833867E1,-1.290765839E0,5.822891235E0,7.949069824E0,9.937799045E0
1.501831567E1,-1.176852722E0,5.806425476E0,7.826025696E0,9.815611918E0
1.502829367E1,-1.171763306E0,5.842650146E0,7.359445953E0,9.469479116E0
1.503827167E1,-1.386865997E0,5.864953766E0,6.820566559E0,9.101714572E0
1.504824967E1,-1.707648926E0,5.840554504E0,6.308780823E0,8.765207199E0
1.505822767E1,-2.004930725E0,5.929319916E0,5.870192871E0,8.581127328E0
1.506820467E1,-2.272723846E0,6.070027313E0,5.738466797E0,8.656818494E0
1.507818267E1,-2.271526337E0,6.068530426E0,5.833369446E0,8.718663460E0
1.508816067E1,-1.813029785E0,6.129453735E0,5.953569489E0,8.735117043E0
1.509813867E1,-1.140478363E0,6.345903625E0,6.078260193E0,8.860949762E0
1.510811667E1,-4.580474854E-1,6.651567993E0,6.233337708E0,9.127303175E0
1.511809367E1,1.225950623E-1,6.918762360E0,6.310128021E0,9.364935546E0
1.512807167E1,5.396278381E-1,7.168892212E0,6.296656036E0,9.556782460E0
1.513804967E1,7.535330200E-1,7.310198364E0,6.176605682E0,9.599857806E0
1.514802767E1,7.502398682E-1,7.307054901E0,6.067033539E0,9.527056584E0
1.515800567E1,7.882608032E-1,7.384144592E0,6.142776031E0,9.637460445E0
1.516798267E1,1.013991394E0,7.502997437E0,6.385571136E0,9.904477160E0
1.517796067E1,1.455872498E0,7.554340668E0,6.723717957E0,1.021743661E1
1.518793867E1,1.970801697E0,7.496710510E0,6.992558899E0,1.043937775E1
1.519791667E1,2.332000580E0,7.405250702E0,7.157066803E0,1.055933567E1
1.520789467E1,2.627486115E0,7.410639496E0,7.125632172E0,1.061112128E1
1.521787167E1,2.856958923E0,7.501201172E0,6.920109558E0,1.059802574E1
1.522784967E1,2.932102661E0,7.596852264E0,6.629264374E0,1.050031126E1
1.523782767E1,3.066822510E0,7.709418182E0,6.332731018E0,1.043762479E1
1.524780567E1,6.098617859E0,8.509354706E0,6.489455109E0,1.231727587E1
1.525778367E1,4.472399597E0,8.787326660E0,6.135291595E0,1.161297856E1
1.526776067E1,6.326593781E0,1.006132736E1,5.073549500E0,1.292273197E1
1.527773867E1,1.364756973E1,1.309476929E1,4.985981598E0,1.955988637E1
1.528771667E1,6.914720764E0,1.207359283E1,2.126477966E0,1.407504585E1
1.529769467E1,3.059338074E0,9.598340149E0,3.700305176E0,1.073219183E1
1.530767267E1,2.632874908E0,7.256160736E0,6.330485687E0,9.982932833E0
1.531764967E1,2.064057770E0,5.920637970E0,7.007976837E0,9.403511461E0
1.532762767E1,1.506467285E0,5.440885620E0,6.896458740E0,8.912565465E0
1.533760567E1,4.420307922E-1,5.277874603E0,6.922354889E0,8.716097106E0
1.534758367E1,-5.069956970E-1,5.248984680E0,7.303312683E0,9.008177449E0
1.535756167E1,-5.671705627E-1,5.759872284E0,6.820117493E0,8.944932296E0
1.536753867E1,1.200503540E-1,5.914201355E0,7.524402924E0,9.571250133E0
1.537751667E1,1.101110229E0,5.952970734E0,7.693401489E0,9.789725776E0
1.538749467E1,1.554068298E0,6.193370819E0,6.984924774E0,9.463727832E0
1.539747267E1,1.573976898E0,6.347699890E0,7.042255554E0,9.610622272E0
1.540745067E1,1.458417206E0,6.383325806E0,6.842421112E0,9.470615385E0
1.541742867E1,1.367406464E0,6.444698181E0,6.580465851E0,9.311630679E0
1.542740567E1,1.398092651E0,6.685397644E0,6.425088959E0,9.377151638E0
1.543738367E1,1.519190826E0,6.976841583E0,6.382876740E0,9.577336515E0
1.544736167E1,1.715881805E0,7.115902405E0,6.711144104E0,9.930748843E0
1.545733967E1,2.047292633E0,7.182663574E0,7.153923340E0,1.034217977E1
1.546731667E1,2.441423035E0,7.174131317E0,7.466323700E0,1.063835966E1
1.547729467E1,2.868035889E0,7.270081787E0,7.639214172E0,1.092873791E1
1.548727267E1,3.087778931E0,7.410190430E0,7.401059418E0,1.091883608E1
1.549725067E1,2.893782349E0,7.335944824E0,6.994055786E0,1.054072479E1
1.550722867E1,2.814746704E0,7.061116333E0,7.076384583E0,1.038544085E1
1.551720667E1,3.029699707E0,7.026089172E0,6.908284149E0,1.030870502E1
1.552718367E1,3.249442749E0,7.238198090E0,6.701114960E0,1.038534214E1
1.553716167E1,3.300037537E0,7.376510468E0,6.541846161E0,1.039706235E1
1.554713967E1,3.204236755E0,7.283104706E0,6.343508606E0,1.017599375E1
1.555711767E1,3.094514923E0,7.126829681E0,6.184838562E0,9.930757874E0
1.556709467E1,3.055296478E0,7.003635864E0,5.997278595E0,9.713552514E0
1.557707267E1,3.041225739E0,6.900350647E0,5.915997620E0,9.584514640E0
1.558705067E1,3.076402588E0,6.758894806E0,5.885610809E0,9.475617472E0
1.559702867E1,3.112926636E0,6.621779938E0,5.855673065E0,9.371616127E0
1.560700667E1,3.134182434E0,6.552623749E0,5.933062134E0,9.378763448E0
1.561698367E1,3.279530182E0,6.530619507E0,6.071374512E0,9.500836690E0
1.562696167E1,3.405568085E0,6.502028961E0,6.139183502E0,9.568900076E0
1.563693967E1,3.394940186E0,6.387217712E0,6.173462219E0,9.509669013E0
1.564691767E1,3.383114777E0,6.253994751E0,6.184090118E0,9.423422230E0
1.565689567E1,3.272943878E0,6.155948639E0,6.201454010E0,9.330910840E0
1.566687367E1,3.211272125E0,6.057303772E0,6.160738678E0,9.217260911E0
1.567685067E1,3.260370026E0,6.005810852E0,6.057902527E0,9.132248339E0
1.568682867E1,3.277733917E0,6.064339142E0,5.979315948E0,9.125347559E0
1.569680667E1,3.160078583E0,6.120173035E0,5.958808594E0,9.107689854E0
1.570678467E1,3.087030487E0,6.023773499E0,6.007607117E0,9.050245724E0
1.571676267E1,3.047961731E0,5.856122131E0,5.996530151E0,8.918666435E0
1.572673967E1,3.125350800E0,5.846392365E0,5.888604584E0,8.867005427E0
1.573671767E1,3.328029327E0,6.043981476E0,5.836512909E0,9.037166272E0
1.574669567E1,3.487148438E0,6.193370819E0,5.872138824E0,9.219547749E0
1.575667367E1,3.620221710E0,6.220015411E0,6.083050232E0,9.423274223E0
1.576665067E1,3.613036652E0,6.261329498E0,6.450985107E0,9.688833252E0
1.577662867E1,3.324287109E0,6.176306305E0,6.544839935E0,9.593360941E0
1.578660667E1,3.205434265E0,6.127807159E0,6.519692230E0,9.504273575E0
1.579658467E1,3.432811432E0,6.330485687E0,6.640341339E0,9.795579435E0
1.580656267E1,3.340154114E0,6.415059814E0,6.414161682E0,9.667010500E0
1.581653967E1,3.232378235E0,6.670728149E0,4.652325439E0,8.751629282E0
1.582651767E1,4.532574463E0,7.085216217E0,4.945415955E0,9.757133753E0
1.583649567E1,5.877377930E0,7.057972870E0,6.120771790E0,1.103731850E1
1.584647367E1,5.687722321E0,7.015012207E0,6.709647217E0,1.125077541E1
1.585645167E1,5.201832733E0,7.316185913E0,6.468348999E0,1.106459122E1
1.586642867E1,4.430337067E0,7.272327118E0,6.039341125E0,1.043974470E1